subject	values.trial_number	values.Cross_position	values.Circle_1	values.Position_1	values.Color_1	values.Circle_2	values.Position_2	values.Color_2	values.p_confidence	values.response_time	checkboxes.acuityq.response	checkboxes.colourq.response	checkboxes.stategy.response	textbox.colour_response.response	textbox.strategy_text.response
1	0	0	0	0	0	0	0	0	0	0					
1	0	0	0	0	0	0	0	0	0	0					
1	0	0	0	0	0	0	0	0	0	0					
1	0	0	0	0	0	0	0	0	0	0					
1	0	0	0	0	0	0	0	0	0	0					
1	0	0	0	0	0	0	0	0	0	0					
1	0	0	0	0	0	0	0	0	0	0					
1	0	0	0	0	0	0	0	0	0	0					
1	1	0	-1	-29.0528295396484566027	6	1	-28.4527714383911245477	1	0	4287					
1	2	0	-1	141.8568556108178881914	6	1	60.374688338575566604	3	1	2462					
1	3	0	1	-85.3721253446703940426	3	1	-154.1259269685039043907	5	0	818					
1	4	0	-1	-33.5237490976051901725	8	1	145.7090074023485612997	4	0	1290					
1	5	0	-1	45.9968022131353677651	1	1	-172.9642748164395413824	7	0	2073					
1	6	0	-1	110.9815281189469260426	7	-1	-15.7378337698577865922	7	0	992					
1	7	0	1	-173.9108492606112008616	2	1	108.9859667469155084518	9	0	774					
1	8	0	-1	-76.8301186004723746237	3	-1	97.454406371101242712	8	0	992					
1	9	0	1	100.7344395948421720277	3	1	-146.8503363324083750285	8	0	3719					
1	10	0	-1	-97.6082362229023772215	1	-1	52.4612149687701077028	5	0	947					
1	11	0	-1	-52.6708880049807106616	5	1	-67.7825300413608857752	8	7	1637					
1	12	0	-1	40.3714163090035924597	6	1	19.7143317758371665604	7	0	1055					
1	13	0	1	-77.320788674364038684	1	1	159.4872024376389845202	7	0	2445					
1	14	0	-1	175.2755733009603886785	1	-1	-9.752448652479216662	3	0	18941					
