subject	values.trial_number	values.Cross_position	values.Circle_1	values.Position_1	values.Color_1	values.Circle_2	values.Position_2	values.Color_2	values.Position_3	values.Color_3	values.Position_4	values.Color_4	values.p_confidence	values.response_time	checkboxes.acuityq.response	checkboxes.colourq.response	checkboxes.stategy.response	textbox.colour_response.response	textbox.strategy_text.response
1	0	0	0	0	0	0	0	0	0	0	0	0	0	0					
1	0	0	0	0	0	0	0	0	0	0	0	0	0	0					
1	0	0	0	0	0	0	0	0	0	0	0	0	0	0					
1	0	0	0	0	0	0	0	0	0	0	0	0	0	0					
1	0	0	0	0	0	0	0	0	0	0	0	0	0	0					
1	0	0	0	0	0	0	0	0	0	0	0	0	0	0					
1	0	0	0	0	0	0	0	0	0	0	0	0	0	0					
1	0	0	0	0	0	0	0	0	0	0	0	0	0	0					
1	1	0	1	-67.2538812289139968925	4	1	-150.4189568805696239906	5	-16.5279029208533358997	7	-64.2567746558486732056	6	1	976					
1	2	0	-1	-48.7230403601944033198	4	-1	-175.5793479679570623375	2	-39.3048734449094467891	6	-167.4558925286556245737	8	5	1463					
1	3	0	-1	-65.2463350364114944568	3	-1	93.6905810053656722403	6	28.4462265969361567386	7	-40.457637310132525954	5	3	1064					
1	4	0	-1	54.1250853413075674325	9	1	-127.4701752763870530316	8	-17.0833896699881790937	4	10.1797370179736077489	2	2	1353					
1	5	0	1	-29.6148161146824406842	5	1	64.9659571822815848918	2	60.48809171665649842	6	-166.9568666208885474589	8	5	1145					
1	6	0	-1	37.5625974725844855584	7	1	152.4480007245317096931	1	-48.6641110299176489207	1	-159.2377614235438443302	7	1	1225					
1	7	0	-1	-108.466816183288301545	6	1	-167.2457372181224002361	6	101.8702570163131468917	3	115.9596362377256753007	9	0	756					
1	8	0	-1	10.9630112235813896859	2	-1	174.2898458536390648987	7	-152.8985434428086875869	8	50.8746647749885312351	6	5	1103					
1	9	0	-1	-74.0435131485675128715	1	-1	52.8412621611525139542	1	-69.7207500156296333671	1	-173.7766609157204413805	5	0	1199					
1	10	0	-1	85.0092411565150314345	5	1	-178.8609252588034053133	4	-168.6760767759454608949	3	1.4225590304505146833	4	1	741					
1	11	0	1	-5.5970880541943586195	3	1	-82.1430273308194074389	5	134.7981045010495222414	6	-160.8395840437863455463	3	3	1173					
1	12	0	-1	-37.6468347612877494157	7	1	143.9805853748649155932	6	78.699857698905759662	4	176.0601274835533729402	2	3	2074					
1	13	0	1	-56.4439744773423228708	6	1	152.1518653651838803853	5	-155.3572060110413417533	3	79.5983913573654717766	5	1	816					
1	14	0	-1	-170.2614187426542571302	8	-1	-74.0382920934760875298	8	2.5151740718901010041	9	71.3312883473366809994	1	0	731					
1	15	0	-1	168.217090160636530527	7	-1	60.7324670631198273441	6	-60.2099587955069637246	1	-121.292086165991861435	2	1	861					
1	16	0	1	-22.8441202554023163884	4	1	166.6804699217549909918	2	60.4781244603167635887	1	-21.3939531045373882989	4	5	1949					
1	17	0	1	84.4906111491123397172	9	1	151.0672590335378515647	6	-77.4859052937212169354	2	114.3193190492860793483	1	6	876					
