subject	values.trial_number	values.Cross_position	values.Circle_1	values.Position_1	values.Color_1	values.Circle_2	values.Position_2	values.Color_2	values.p_confidence	values.response_time	checkboxes.acuityq.response	checkboxes.colourq.response	checkboxes.stategy.response	textbox.colour_response.response	textbox.strategy_text.response
1	0	0	0	0	0	0	0	0	0	0					
1	0	0	0	0	0	0	0	0	0	0					
1	0	0	0	0	0	0	0	0	0	0					
1	0	0	0	0	0	0	0	0	0	0					
1	0	0	0	0	0	0	0	0	0	0					
1	0	0	0	0	0	0	0	0	0	0					
1	0	0	0	0	0	0	0	0	0	0					
1	0	0	0	0	0	0	0	0	0	0					
1	1	0	-1	177.341449325285282157	9	-1	105.1139308696901650819	9	1	2567					
1	2	0	1	61.2369784715671414688	4	1	150.9494741693971775476	4	6	625					
1	3	0	1	-65.5274172140116490937	5	1	36.7751172147289366876	2	0	790					
1	4	0	1	-126.6079349319003313212	9	1	-179.5491777907342338949	1	0	637					
1	5	0	-1	61.7975811105681600566	3	-1	148.1241306221074864879	9	0	1017					
1	6	0	-1	-166.9225590273092052485	3	1	161.8291159397524552332	9	0	518					
1	7	0	1	-163.4212980939590522667	5	1	100.1897951534770783155	9	0	471					
1	8	0	-1	-98.561555584557723364	2	1	-134.0087569584159155056	1	0	389					
1	9	0	-1	148.8760814370764364867	6	1	43.0699699518899592476	2	0	479					
1	10	0	-1	28.1290084421934807324	7	-1	-145.4126169732375899457	4	0	405					
1	11	0	-1	-85.6058069378151174078	6	-1	108.247912857409559706	2	0	420					
1	12	0	-1	-145.5763004174400805368	5	1	-155.5863905454954192464	3	0	408					
1	13	0	-1	-120.6066808525022793219	1	1	140.5799469259986835823	1	0	419					
1	14	0	-1	9.8409637319485341322	1	1	-58.9760933627784424971	5	0	483					
1	15	0	-1	-158.2832396445523954753	8	-1	-79.2470721021947923646	2	0	349					
1	16	0	-1	30.7549078321910656086	6	1	-54.7904566570162927519	5	0	494					
1	17	0	-1	6.3041714919507683135	7	1	-82.932396238421176804	7	7	455					
1	18	0	-1	175.9795098369893366907	2	1	49.2723512345162077963	7	0	336					
1	19	0	1	39.6150746894104202056	3	1	-57.1454830754248348512	7	0	422					
1	20	0	-1	128.0090664392358235091	4	1	122.1771574817079226705	2	1	927					
1	21	0	1	25.5369483878689322864	5	1	-66.4144972347230293508	8	0	984					
1	22	0	1	6.9841957155112766031	7	1	111.3300027880030569349	7	0	523					
1	23	0	-1	-80.420782505632558923	5	-1	-140.7142948902234138586	9	0	310					
1	24	0	-1	-104.3512569657413422419	1	-1	168.5119290806788683312	6	0	301					
