subject	values.trial_number	values.Cross_position	values.Circle_1	values.Position_1	values.Color_1	values.Circle_2	values.Position_2	values.Color_2	values.p_confidence	values.response_time	checkboxes.acuityq.response	checkboxes.colourq.response	checkboxes.stategy.response	textbox.colour_response.response	textbox.strategy_text.response
1	0	0	0	0	0	0	0	0	0	0					
1	0	0	0	0	0	0	0	0	0	0					
1	0	0	0	0	0	0	0	0	0	0					
1	0	0	0	0	0	0	0	0	0	0					
1	0	0	0	0	0	0	0	0	0	0					
1	0	0	0	0	0	0	0	0	0	0					
1	0	0	0	0	0	0	0	0	0	0					
1	0	0	0	0	0	0	0	0	0	0					
1	1	0	-1	72.0621277140597840116	8	1	-12.5098141731018586142	7	0	0					
1	2	0	1	151.087487333241710985	2	1	43.3644899560509600178	4	0	0					
1	3	0	1	-149.9985887599174247953	5	1	16.4156344253744919115	9	0	0					
1	4	0	-1	94.5010685721647973878	4	-1	-41.0796298174333003317	4	0	0					
1	5	0	-1	-18.0523235066915788138	1	-1	172.7253033966687780776	4	0	0					
1	6	0	-1	-79.1342316984977287575	7	1	-113.5870323268666481908	2	0	0					
1	7	0	-1	84.6195024402391595686	1	-1	-33.3055471858954206255	5	0	0					
1	8	0	1	-71.5878923729965066514	5	1	-177.8047417038372088882	4	0	0					
1	9	0	-1	-59.2305868024077568634	6	1	103.5848555535974355735	4	0	0					
1	10	0	-1	151.0745864107912552754	7	-1	44.394904368449829235	3	0	0					
1	11	0	1	52.0412995368338613389	4	1	-104.4644773531058064009	8	0	0					
