subject	values.trial_number	values.Cross_position	values.Circle_1	values.Position_1	values.Color_1	values.Circle_2	values.Position_2	values.Color_2	values.p_confidence	values.response_time	checkboxes.acuityq.response	checkboxes.colourq.response	checkboxes.stategy.response	textbox.colour_response.response	textbox.strategy_text.response
1	0	0	0	0	0	0	0	0	0	0					
1	0	0	0	0	0	0	0	0	0	0					
1	0	0	0	0	0	0	0	0	0	0					
1	0	0	0	0	0	0	0	0	0	0					
1	0	0	0	0	0	0	0	0	0	0					
1	0	0	0	0	0	0	0	0	0	0					
1	0	0	0	0	0	0	0	0	0	0					
1	0	0	0	0	0	0	0	0	0	0					
1	1	0	1	89.7006219508360800319	2	1	13.9392073726383500798	2	0	1719					
1	2	0	-1	49.7987790102602048137	3	1	72.2221270977105120892	9	0	838					
1	3	0	-1	-152.6116588089176673293	2	-1	-80.5847370888906766595	9	0	585					
1	4	0	-1	87.9521831003837633034	6	1	-86.1144509972339591286	1	0	645					
1	5	0	-1	-86.159912176933119099	9	-1	-179.4161150024837354522	3	0	828					
1	6	0	1	95.908732683376570094	7	1	-90.8982414246056436014	7	0	703					
1	7	0	-1	-107.46706677774596983	3	1	5.5729475025024726165	8	6	749					
1	8	0	-1	-96.2970847814104331519	7	1	-172.0703994091764172936	9	7	729					
1	9	0	-1	-103.8390470770744258289	6	1	-123.1346095407229341845	9	7	2974					
1	10	0	1	-135.1531699661056507011	9	1	123.8712962341690939638	7	3	998					
1	11	0	-1	107.3649514763068850698	4	1	-163.6118194236447607182	3	5	824					
1	12	0	1	14.1701024757163054346	7	1	-163.9621923448486313646	9	4	647					
1	13	0	1	129.290079155305875247	3	1	-110.196942071450507683	9	7	779					
1	14	0	1	-126.8146348434534473881	5	1	-179.6967611367693677948	2	6	691					
1	15	0	-1	109.4008869234008898275	3	-1	-34.7111528115559622165	3	7	620					
1	16	0	-1	-130.1963114995035084576	9	1	46.8777470260108373168	4	0	770					
1	17	0	-1	107.3260502254884158901	6	1	-106.5105353031564732191	7	3	827					
1	18	0	1	99.8590722679763871383	4	1	179.2335435844469202493	5	2	811					
1	19	0	1	27.2188447339503909461	3	1	-138.887131873756686673	5	7	890					
1	20	0	1	63.6871294685842030958	1	1	-36.3753999001477268394	3	6	661					
1	21	0	1	119.4273015622578668626	6	1	178.234596292353046465	5	0	2798					
1	22	0	1	-19.3462760372427737821	8	1	134.1121753602464252708	7	7	1191					
1	23	0	1	43.9420837592198552102	1	1	131.999356313930604756	1	6	925					
1	24	0	-1	121.1097046782052188973	3	-1	179.9490235836480280796	1	7	796					
1	25	0	-1	-44.8912478761959903295	6	1	-83.3502175154514048927	3	3	1164					
1	26	0	-1	51.909673565977641374	6	1	21.3155775334023758205	2	6	819					
1	27	0	-1	67.7048004622815255971	2	1	-89.837004819381292009	7	2	1184					
1	28	0	1	103.5709496409564849273	3	1	-125.6200145727711969812	6	5	831					
1	29	0	-1	152.448882752202678148	6	-1	-102.4521009639573634331	3	4	643					
1	30	0	-1	6.0673417397931643791	2	-1	153.4903873844255031145	5	7	699					
1	31	0	-1	71.41958534983442064	4	-1	166.5410213714861242806	9	2	1128					
1	32	0	-1	-88.7157098550153193628	4	1	38.9704045790644215685	8	3	906					
1	33	0	1	119.1741528313547178186	5	1	-30.6846490597352499208	9	4	768					
1	34	0	1	45.198806306626352125	2	1	149.3408559735323706263	9	6	1163					
