subject,trial_number,Cross_position,Circle_1,Position_1,Color_1,Circle_2,Position_2,Color_2,Position_3,Color_3,Position_4,Color_4,p_confidence,response_color,response_time,angle_1,angle_2,angle_3,angle_4,angle_1_cue,angle_2_cue,angle_3_cue,angle_4_cue
1,0,0,0,0,0,0,0,0,0,0,0,0,0,-1,0,0,0,0,0,0,0,0,0
1,0,0,0,0,0,0,0,0,0,0,0,0,0,-1,0,0,0,0,0,0,0,0,0
1,0,0,0,0,0,0,0,0,0,0,0,0,0,-1,0,0,0,0,0,0,0,0,0
1,0,0,0,0,0,0,0,0,0,0,0,0,0,-1,0,0,0,0,0,0,0,0,0
1,0,0,0,0,0,0,0,0,0,0,0,0,0,-1,0,0,0,0,0,0,0,0,0
1,0,0,0,0,0,0,0,0,0,0,0,0,0,-1,0,0,0,0,0,0,0,0,0
1,0,0,0,0,0,0,0,0,0,0,0,0,0,-1,0,0,0,0,0,0,0,0,0
1,0,0,0,0,0,0,0,0,0,0,0,0,3,5,55,-139.0396897,-19.03968966,-79.03968966,40.96031034,-49.03968966,70.96031034,10.96031034,130.9603103
1,1,0,-1,-1.329182634,3,-1,118.6708174,7,58.67081737,7,178.6708174,5,1,5,65,-1.329182634,118.6708174,58.67081737,178.6708174,88.67081737,208.6708174,148.6708174,268.6708174
1,1,0,-1,-1.329182634,3,-1,118.6708174,7,58.67081737,7,178.6708174,5,5,6,62,-1.329182634,118.6708174,58.67081737,178.6708174,88.67081737,208.6708174,148.6708174,268.6708174
1,1,0,-1,-1.329182634,3,-1,118.6708174,7,58.67081737,7,178.6708174,5,1,4,42,-1.329182634,118.6708174,58.67081737,178.6708174,88.67081737,208.6708174,148.6708174,268.6708174
1,1,0,-1,-1.329182634,3,-1,118.6708174,7,58.67081737,7,178.6708174,5,6,8,53,-1.329182634,118.6708174,58.67081737,178.6708174,88.67081737,208.6708174,148.6708174,268.6708174
1,1,0,-1,-1.329182634,3,-1,118.6708174,7,58.67081737,7,178.6708174,5,2,7,53,-1.329182634,118.6708174,58.67081737,178.6708174,88.67081737,208.6708174,148.6708174,268.6708174
1,1,0,-1,-1.329182634,3,-1,118.6708174,7,58.67081737,7,178.6708174,5,5,1,50,-1.329182634,118.6708174,58.67081737,178.6708174,88.67081737,208.6708174,148.6708174,268.6708174
1,1,0,-1,-1.329182634,3,-1,118.6708174,7,58.67081737,7,178.6708174,5,0,2,64,-1.329182634,118.6708174,58.67081737,178.6708174,88.67081737,208.6708174,148.6708174,268.6708174
1,1,0,-1,-1.329182634,3,-1,118.6708174,7,58.67081737,7,178.6708174,5,3,9,53,-1.329182634,118.6708174,58.67081737,178.6708174,88.67081737,208.6708174,148.6708174,268.6708174
1,1,0,-1,-1.329182634,3,-1,118.6708174,7,58.67081737,7,178.6708174,5,5,3,70,-1.329182634,118.6708174,58.67081737,178.6708174,88.67081737,208.6708174,148.6708174,268.6708174
1,2,0,-1,-102.1384829,6,-1,17.86151711,9,-42.13848289,7,77.86151711,7,3,9,27,-102.1384829,17.86151711,-42.13848289,77.86151711,-12.13848289,107.8615171,47.86151711,167.8615171
1,2,0,-1,-102.1384829,6,-1,17.86151711,9,-42.13848289,7,77.86151711,7,0,8,59,-102.1384829,17.86151711,-42.13848289,77.86151711,-12.13848289,107.8615171,47.86151711,167.8615171
1,2,0,-1,-102.1384829,6,-1,17.86151711,9,-42.13848289,7,77.86151711,7,4,6,51,-102.1384829,17.86151711,-42.13848289,77.86151711,-12.13848289,107.8615171,47.86151711,167.8615171
1,2,0,-1,-102.1384829,6,-1,17.86151711,9,-42.13848289,7,77.86151711,7,7,1,38,-102.1384829,17.86151711,-42.13848289,77.86151711,-12.13848289,107.8615171,47.86151711,167.8615171
1,2,0,-1,-102.1384829,6,-1,17.86151711,9,-42.13848289,7,77.86151711,7,4,7,52,-102.1384829,17.86151711,-42.13848289,77.86151711,-12.13848289,107.8615171,47.86151711,167.8615171
1,2,0,-1,-102.1384829,6,-1,17.86151711,9,-42.13848289,7,77.86151711,7,7,5,53,-102.1384829,17.86151711,-42.13848289,77.86151711,-12.13848289,107.8615171,47.86151711,167.8615171
1,2,0,-1,-102.1384829,6,-1,17.86151711,9,-42.13848289,7,77.86151711,7,7,2,79,-102.1384829,17.86151711,-42.13848289,77.86151711,-12.13848289,107.8615171,47.86151711,167.8615171
1,2,0,-1,-102.1384829,6,-1,17.86151711,9,-42.13848289,7,77.86151711,7,7,4,60,-102.1384829,17.86151711,-42.13848289,77.86151711,-12.13848289,107.8615171,47.86151711,167.8615171
1,2,0,-1,-102.1384829,6,-1,17.86151711,9,-42.13848289,7,77.86151711,7,4,3,66,-102.1384829,17.86151711,-42.13848289,77.86151711,-12.13848289,107.8615171,47.86151711,167.8615171
1,3,0,-1,-16.89407114,1,-1,103.1059289,4,43.10592886,8,163.1059289,4,3,7,54,-16.89407114,103.1059289,43.10592886,163.1059289,73.10592886,193.1059289,133.1059289,253.1059289
1,3,0,-1,-16.89407114,1,-1,103.1059289,4,43.10592886,8,163.1059289,4,6,8,59,-16.89407114,103.1059289,43.10592886,163.1059289,73.10592886,193.1059289,133.1059289,253.1059289
1,3,0,-1,-16.89407114,1,-1,103.1059289,4,43.10592886,8,163.1059289,4,7,6,70,-16.89407114,103.1059289,43.10592886,163.1059289,73.10592886,193.1059289,133.1059289,253.1059289
1,3,0,-1,-16.89407114,1,-1,103.1059289,4,43.10592886,8,163.1059289,4,4,4,66,-16.89407114,103.1059289,43.10592886,163.1059289,73.10592886,193.1059289,133.1059289,253.1059289
1,3,0,-1,-16.89407114,1,-1,103.1059289,4,43.10592886,8,163.1059289,4,1,5,39,-16.89407114,103.1059289,43.10592886,163.1059289,73.10592886,193.1059289,133.1059289,253.1059289
1,3,0,-1,-16.89407114,1,-1,103.1059289,4,43.10592886,8,163.1059289,4,2,9,60,-16.89407114,103.1059289,43.10592886,163.1059289,73.10592886,193.1059289,133.1059289,253.1059289
1,3,0,-1,-16.89407114,1,-1,103.1059289,4,43.10592886,8,163.1059289,4,3,1,59,-16.89407114,103.1059289,43.10592886,163.1059289,73.10592886,193.1059289,133.1059289,253.1059289
1,3,0,-1,-16.89407114,1,-1,103.1059289,4,43.10592886,8,163.1059289,4,7,3,57,-16.89407114,103.1059289,43.10592886,163.1059289,73.10592886,193.1059289,133.1059289,253.1059289
1,3,0,-1,-16.89407114,1,-1,103.1059289,4,43.10592886,8,163.1059289,4,1,2,36,-16.89407114,103.1059289,43.10592886,163.1059289,73.10592886,193.1059289,133.1059289,253.1059289
1,4,0,1,2.00315638,1,1,122.0031564,5,62.00315638,5,182.0031564,7,7,3,61,2.00315638,122.0031564,62.00315638,182.0031564,92.00315638,212.0031564,152.0031564,272.0031564
1,4,0,1,2.00315638,1,1,122.0031564,5,62.00315638,5,182.0031564,7,2,9,70,2.00315638,122.0031564,62.00315638,182.0031564,92.00315638,212.0031564,152.0031564,272.0031564
1,4,0,1,2.00315638,1,1,122.0031564,5,62.00315638,5,182.0031564,7,7,1,76,2.00315638,122.0031564,62.00315638,182.0031564,92.00315638,212.0031564,152.0031564,272.0031564
1,4,0,1,2.00315638,1,1,122.0031564,5,62.00315638,5,182.0031564,7,7,4,56,2.00315638,122.0031564,62.00315638,182.0031564,92.00315638,212.0031564,152.0031564,272.0031564
1,4,0,1,2.00315638,1,1,122.0031564,5,62.00315638,5,182.0031564,7,1,5,72,2.00315638,122.0031564,62.00315638,182.0031564,92.00315638,212.0031564,152.0031564,272.0031564
1,4,0,1,2.00315638,1,1,122.0031564,5,62.00315638,5,182.0031564,7,3,7,57,2.00315638,122.0031564,62.00315638,182.0031564,92.00315638,212.0031564,152.0031564,272.0031564
1,4,0,1,2.00315638,1,1,122.0031564,5,62.00315638,5,182.0031564,7,6,8,76,2.00315638,122.0031564,62.00315638,182.0031564,92.00315638,212.0031564,152.0031564,272.0031564
1,4,0,1,2.00315638,1,1,122.0031564,5,62.00315638,5,182.0031564,7,1,2,87,2.00315638,122.0031564,62.00315638,182.0031564,92.00315638,212.0031564,152.0031564,272.0031564
1,4,0,1,2.00315638,1,1,122.0031564,5,62.00315638,5,182.0031564,7,7,6,38,2.00315638,122.0031564,62.00315638,182.0031564,92.00315638,212.0031564,152.0031564,272.0031564
1,5,0,1,-32.64023263,4,1,87.35976737,3,27.35976737,8,147.3597674,5,0,7,64,-32.64023263,87.35976737,27.35976737,147.3597674,57.35976737,177.3597674,117.3597674,237.3597674
1,5,0,1,-32.64023263,4,1,87.35976737,3,27.35976737,8,147.3597674,5,2,2,52,-32.64023263,87.35976737,27.35976737,147.3597674,57.35976737,177.3597674,117.3597674,237.3597674
1,5,0,1,-32.64023263,4,1,87.35976737,3,27.35976737,8,147.3597674,5,7,6,45,-32.64023263,87.35976737,27.35976737,147.3597674,57.35976737,177.3597674,117.3597674,237.3597674
1,5,0,1,-32.64023263,4,1,87.35976737,3,27.35976737,8,147.3597674,5,7,5,63,-32.64023263,87.35976737,27.35976737,147.3597674,57.35976737,177.3597674,117.3597674,237.3597674
1,5,0,1,-32.64023263,4,1,87.35976737,3,27.35976737,8,147.3597674,5,3,1,77,-32.64023263,87.35976737,27.35976737,147.3597674,57.35976737,177.3597674,117.3597674,237.3597674
1,5,0,1,-32.64023263,4,1,87.35976737,3,27.35976737,8,147.3597674,5,2,9,49,-32.64023263,87.35976737,27.35976737,147.3597674,57.35976737,177.3597674,117.3597674,237.3597674
1,5,0,1,-32.64023263,4,1,87.35976737,3,27.35976737,8,147.3597674,5,7,4,70,-32.64023263,87.35976737,27.35976737,147.3597674,57.35976737,177.3597674,117.3597674,237.3597674
1,5,0,1,-32.64023263,4,1,87.35976737,3,27.35976737,8,147.3597674,5,6,8,58,-32.64023263,87.35976737,27.35976737,147.3597674,57.35976737,177.3597674,117.3597674,237.3597674
1,5,0,1,-32.64023263,4,1,87.35976737,3,27.35976737,8,147.3597674,5,1,3,58,-32.64023263,87.35976737,27.35976737,147.3597674,57.35976737,177.3597674,117.3597674,237.3597674
1,6,0,1,37.33015573,2,1,157.3301557,8,97.33015573,6,217.3301557,6,0,9,68,37.33015573,157.3301557,97.33015573,217.3301557,127.3301557,247.3301557,187.3301557,307.3301557
1,6,0,1,37.33015573,2,1,157.3301557,8,97.33015573,6,217.3301557,6,2,2,51,37.33015573,157.3301557,97.33015573,217.3301557,127.3301557,247.3301557,187.3301557,307.3301557
1,6,0,1,37.33015573,2,1,157.3301557,8,97.33015573,6,217.3301557,6,1,1,67,37.33015573,157.3301557,97.33015573,217.3301557,127.3301557,247.3301557,187.3301557,307.3301557
1,6,0,1,37.33015573,2,1,157.3301557,8,97.33015573,6,217.3301557,6,4,3,55,37.33015573,157.3301557,97.33015573,217.3301557,127.3301557,247.3301557,187.3301557,307.3301557
1,6,0,1,37.33015573,2,1,157.3301557,8,97.33015573,6,217.3301557,6,3,7,27,37.33015573,157.3301557,97.33015573,217.3301557,127.3301557,247.3301557,187.3301557,307.3301557
1,6,0,1,37.33015573,2,1,157.3301557,8,97.33015573,6,217.3301557,6,7,5,87,37.33015573,157.3301557,97.33015573,217.3301557,127.3301557,247.3301557,187.3301557,307.3301557
1,6,0,1,37.33015573,2,1,157.3301557,8,97.33015573,6,217.3301557,6,6,4,40,37.33015573,157.3301557,97.33015573,217.3301557,127.3301557,247.3301557,187.3301557,307.3301557
1,6,0,1,37.33015573,2,1,157.3301557,8,97.33015573,6,217.3301557,6,7,6,70,37.33015573,157.3301557,97.33015573,217.3301557,127.3301557,247.3301557,187.3301557,307.3301557
1,6,0,1,37.33015573,2,1,157.3301557,8,97.33015573,6,217.3301557,6,0,8,79,37.33015573,157.3301557,97.33015573,217.3301557,127.3301557,247.3301557,187.3301557,307.3301557
1,7,0,-1,-2.015461517,4,-1,117.9845385,2,57.98453848,2,177.9845385,6,2,3,59,-2.015461517,117.9845385,57.98453848,177.9845385,87.98453848,207.9845385,147.9845385,267.9845385
1,7,0,-1,-2.015461517,4,-1,117.9845385,2,57.98453848,2,177.9845385,6,2,7,54,-2.015461517,117.9845385,57.98453848,177.9845385,87.98453848,207.9845385,147.9845385,267.9845385
1,7,0,-1,-2.015461517,4,-1,117.9845385,2,57.98453848,2,177.9845385,6,7,8,58,-2.015461517,117.9845385,57.98453848,177.9845385,87.98453848,207.9845385,147.9845385,267.9845385
1,7,0,-1,-2.015461517,4,-1,117.9845385,2,57.98453848,2,177.9845385,6,5,9,45,-2.015461517,117.9845385,57.98453848,177.9845385,87.98453848,207.9845385,147.9845385,267.9845385
1,7,0,-1,-2.015461517,4,-1,117.9845385,2,57.98453848,2,177.9845385,6,4,4,79,-2.015461517,117.9845385,57.98453848,177.9845385,87.98453848,207.9845385,147.9845385,267.9845385
1,7,0,-1,-2.015461517,4,-1,117.9845385,2,57.98453848,2,177.9845385,6,7,5,75,-2.015461517,117.9845385,57.98453848,177.9845385,87.98453848,207.9845385,147.9845385,267.9845385
1,7,0,-1,-2.015461517,4,-1,117.9845385,2,57.98453848,2,177.9845385,6,3,1,64,-2.015461517,117.9845385,57.98453848,177.9845385,87.98453848,207.9845385,147.9845385,267.9845385
1,7,0,-1,-2.015461517,4,-1,117.9845385,2,57.98453848,2,177.9845385,6,6,2,70,-2.015461517,117.9845385,57.98453848,177.9845385,87.98453848,207.9845385,147.9845385,267.9845385
1,7,0,-1,-2.015461517,4,-1,117.9845385,2,57.98453848,2,177.9845385,6,2,6,70,-2.015461517,117.9845385,57.98453848,177.9845385,87.98453848,207.9845385,147.9845385,267.9845385
1,8,0,-1,-55.83851097,7,-1,64.16148903,4,4.161489029,7,124.161489,7,7,4,55,-55.83851097,64.16148903,4.161489029,124.161489,34.16148903,154.161489,94.16148903,214.161489
1,8,0,-1,-55.83851097,7,-1,64.16148903,4,4.161489029,7,124.161489,7,5,6,85,-55.83851097,64.16148903,4.161489029,124.161489,34.16148903,154.161489,94.16148903,214.161489
1,8,0,-1,-55.83851097,7,-1,64.16148903,4,4.161489029,7,124.161489,7,5,8,53,-55.83851097,64.16148903,4.161489029,124.161489,34.16148903,154.161489,94.16148903,214.161489
1,8,0,-1,-55.83851097,7,-1,64.16148903,4,4.161489029,7,124.161489,7,3,9,55,-55.83851097,64.16148903,4.161489029,124.161489,34.16148903,154.161489,94.16148903,214.161489
1,8,0,-1,-55.83851097,7,-1,64.16148903,4,4.161489029,7,124.161489,7,6,1,43,-55.83851097,64.16148903,4.161489029,124.161489,34.16148903,154.161489,94.16148903,214.161489
1,8,0,-1,-55.83851097,7,-1,64.16148903,4,4.161489029,7,124.161489,7,6,5,65,-55.83851097,64.16148903,4.161489029,124.161489,34.16148903,154.161489,94.16148903,214.161489
1,8,0,-1,-55.83851097,7,-1,64.16148903,4,4.161489029,7,124.161489,7,7,7,63,-55.83851097,64.16148903,4.161489029,124.161489,34.16148903,154.161489,94.16148903,214.161489
1,8,0,-1,-55.83851097,7,-1,64.16148903,4,4.161489029,7,124.161489,7,4,3,53,-55.83851097,64.16148903,4.161489029,124.161489,34.16148903,154.161489,94.16148903,214.161489
1,8,0,-1,-55.83851097,7,-1,64.16148903,4,4.161489029,7,124.161489,7,7,2,43,-55.83851097,64.16148903,4.161489029,124.161489,34.16148903,154.161489,94.16148903,214.161489
1,9,0,1,67.34595903,7,1,187.345959,8,127.345959,1,247.345959,7,5,6,49,67.34595903,187.345959,127.345959,247.345959,157.345959,277.345959,217.345959,337.345959
1,9,0,1,67.34595903,7,1,187.345959,8,127.345959,1,247.345959,7,6,1,57,67.34595903,187.345959,127.345959,247.345959,157.345959,277.345959,217.345959,337.345959
1,9,0,1,67.34595903,7,1,187.345959,8,127.345959,1,247.345959,7,3,8,67,67.34595903,187.345959,127.345959,247.345959,157.345959,277.345959,217.345959,337.345959
1,9,0,1,67.34595903,7,1,187.345959,8,127.345959,1,247.345959,7,6,9,68,67.34595903,187.345959,127.345959,247.345959,157.345959,277.345959,217.345959,337.345959
1,9,0,1,67.34595903,7,1,187.345959,8,127.345959,1,247.345959,7,6,2,70,67.34595903,187.345959,127.345959,247.345959,157.345959,277.345959,217.345959,337.345959
1,9,0,1,67.34595903,7,1,187.345959,8,127.345959,1,247.345959,7,7,7,41,67.34595903,187.345959,127.345959,247.345959,157.345959,277.345959,217.345959,337.345959
1,9,0,1,67.34595903,7,1,187.345959,8,127.345959,1,247.345959,7,7,5,59,67.34595903,187.345959,127.345959,247.345959,157.345959,277.345959,217.345959,337.345959
1,9,0,1,67.34595903,7,1,187.345959,8,127.345959,1,247.345959,7,2,3,60,67.34595903,187.345959,127.345959,247.345959,157.345959,277.345959,217.345959,337.345959
1,9,0,1,67.34595903,7,1,187.345959,8,127.345959,1,247.345959,7,1,4,77,67.34595903,187.345959,127.345959,247.345959,157.345959,277.345959,217.345959,337.345959
1,10,0,1,-42.92822853,3,1,77.07177147,3,17.07177147,4,137.0717715,5,4,9,82,-42.92822853,77.07177147,17.07177147,137.0717715,47.07177147,167.0717715,107.0717715,227.0717715
1,10,0,1,-42.92822853,3,1,77.07177147,3,17.07177147,4,137.0717715,5,3,2,38,-42.92822853,77.07177147,17.07177147,137.0717715,47.07177147,167.0717715,107.0717715,227.0717715
1,10,0,1,-42.92822853,3,1,77.07177147,3,17.07177147,4,137.0717715,5,7,5,61,-42.92822853,77.07177147,17.07177147,137.0717715,47.07177147,167.0717715,107.0717715,227.0717715
1,10,0,1,-42.92822853,3,1,77.07177147,3,17.07177147,4,137.0717715,5,2,4,74,-42.92822853,77.07177147,17.07177147,137.0717715,47.07177147,167.0717715,107.0717715,227.0717715
1,10,0,1,-42.92822853,3,1,77.07177147,3,17.07177147,4,137.0717715,5,7,6,46,-42.92822853,77.07177147,17.07177147,137.0717715,47.07177147,167.0717715,107.0717715,227.0717715
1,10,0,1,-42.92822853,3,1,77.07177147,3,17.07177147,4,137.0717715,5,3,8,62,-42.92822853,77.07177147,17.07177147,137.0717715,47.07177147,167.0717715,107.0717715,227.0717715
1,10,0,1,-42.92822853,3,1,77.07177147,3,17.07177147,4,137.0717715,5,6,1,55,-42.92822853,77.07177147,17.07177147,137.0717715,47.07177147,167.0717715,107.0717715,227.0717715
1,10,0,1,-42.92822853,3,1,77.07177147,3,17.07177147,4,137.0717715,5,5,7,75,-42.92822853,77.07177147,17.07177147,137.0717715,47.07177147,167.0717715,107.0717715,227.0717715
1,10,0,1,-42.92822853,3,1,77.07177147,3,17.07177147,4,137.0717715,5,4,3,60,-42.92822853,77.07177147,17.07177147,137.0717715,47.07177147,167.0717715,107.0717715,227.0717715
1,11,0,1,73.7107293,9,1,193.7107293,3,133.7107293,1,253.7107293,8,2,3,69,73.7107293,193.7107293,133.7107293,253.7107293,163.7107293,283.7107293,223.7107293,343.7107293
1,11,0,1,73.7107293,9,1,193.7107293,3,133.7107293,1,253.7107293,8,5,2,79,73.7107293,193.7107293,133.7107293,253.7107293,163.7107293,283.7107293,223.7107293,343.7107293
1,11,0,1,73.7107293,9,1,193.7107293,3,133.7107293,1,253.7107293,8,0,5,65,73.7107293,193.7107293,133.7107293,253.7107293,163.7107293,283.7107293,223.7107293,343.7107293
1,11,0,1,73.7107293,9,1,193.7107293,3,133.7107293,1,253.7107293,8,6,8,44,73.7107293,193.7107293,133.7107293,253.7107293,163.7107293,283.7107293,223.7107293,343.7107293
1,11,0,1,73.7107293,9,1,193.7107293,3,133.7107293,1,253.7107293,8,5,6,63,73.7107293,193.7107293,133.7107293,253.7107293,163.7107293,283.7107293,223.7107293,343.7107293
1,11,0,1,73.7107293,9,1,193.7107293,3,133.7107293,1,253.7107293,8,1,7,93,73.7107293,193.7107293,133.7107293,253.7107293,163.7107293,283.7107293,223.7107293,343.7107293
1,11,0,1,73.7107293,9,1,193.7107293,3,133.7107293,1,253.7107293,8,2,1,90,73.7107293,193.7107293,133.7107293,253.7107293,163.7107293,283.7107293,223.7107293,343.7107293
1,11,0,1,73.7107293,9,1,193.7107293,3,133.7107293,1,253.7107293,8,0,4,51,73.7107293,193.7107293,133.7107293,253.7107293,163.7107293,283.7107293,223.7107293,343.7107293
1,11,0,1,73.7107293,9,1,193.7107293,3,133.7107293,1,253.7107293,8,7,9,83,73.7107293,193.7107293,133.7107293,253.7107293,163.7107293,283.7107293,223.7107293,343.7107293
1,12,0,1,76.02401211,5,1,196.0240121,4,136.0240121,4,256.0240121,8,4,6,59,76.02401211,196.0240121,136.0240121,256.0240121,166.0240121,286.0240121,226.0240121,346.0240121
1,12,0,1,76.02401211,5,1,196.0240121,4,136.0240121,4,256.0240121,8,5,8,71,76.02401211,196.0240121,136.0240121,256.0240121,166.0240121,286.0240121,226.0240121,346.0240121
1,12,0,1,76.02401211,5,1,196.0240121,4,136.0240121,4,256.0240121,8,3,4,81,76.02401211,196.0240121,136.0240121,256.0240121,166.0240121,286.0240121,226.0240121,346.0240121
1,12,0,1,76.02401211,5,1,196.0240121,4,136.0240121,4,256.0240121,8,6,5,89,76.02401211,196.0240121,136.0240121,256.0240121,166.0240121,286.0240121,226.0240121,346.0240121
1,12,0,1,76.02401211,5,1,196.0240121,4,136.0240121,4,256.0240121,8,4,7,65,76.02401211,196.0240121,136.0240121,256.0240121,166.0240121,286.0240121,226.0240121,346.0240121
1,12,0,1,76.02401211,5,1,196.0240121,4,136.0240121,4,256.0240121,8,3,2,110,76.02401211,196.0240121,136.0240121,256.0240121,166.0240121,286.0240121,226.0240121,346.0240121
1,12,0,1,76.02401211,5,1,196.0240121,4,136.0240121,4,256.0240121,8,6,3,44,76.02401211,196.0240121,136.0240121,256.0240121,166.0240121,286.0240121,226.0240121,346.0240121
1,12,0,1,76.02401211,5,1,196.0240121,4,136.0240121,4,256.0240121,8,1,9,63,76.02401211,196.0240121,136.0240121,256.0240121,166.0240121,286.0240121,226.0240121,346.0240121
1,12,0,1,76.02401211,5,1,196.0240121,4,136.0240121,4,256.0240121,8,7,1,75,76.02401211,196.0240121,136.0240121,256.0240121,166.0240121,286.0240121,226.0240121,346.0240121
1,13,0,-1,-124.9828261,9,-1,-4.982826064,4,-64.98282606,2,55.01717394,6,7,9,63,-124.9828261,-4.982826064,-64.98282606,55.01717394,-34.98282606,85.01717394,25.01717394,145.0171739
1,13,0,-1,-124.9828261,9,-1,-4.982826064,4,-64.98282606,2,55.01717394,6,7,3,65,-124.9828261,-4.982826064,-64.98282606,55.01717394,-34.98282606,85.01717394,25.01717394,145.0171739
1,13,0,-1,-124.9828261,9,-1,-4.982826064,4,-64.98282606,2,55.01717394,6,1,7,88,-124.9828261,-4.982826064,-64.98282606,55.01717394,-34.98282606,85.01717394,25.01717394,145.0171739
1,13,0,-1,-124.9828261,9,-1,-4.982826064,4,-64.98282606,2,55.01717394,6,1,1,81,-124.9828261,-4.982826064,-64.98282606,55.01717394,-34.98282606,85.01717394,25.01717394,145.0171739
1,13,0,-1,-124.9828261,9,-1,-4.982826064,4,-64.98282606,2,55.01717394,6,2,5,68,-124.9828261,-4.982826064,-64.98282606,55.01717394,-34.98282606,85.01717394,25.01717394,145.0171739
1,13,0,-1,-124.9828261,9,-1,-4.982826064,4,-64.98282606,2,55.01717394,6,4,4,41,-124.9828261,-4.982826064,-64.98282606,55.01717394,-34.98282606,85.01717394,25.01717394,145.0171739
1,13,0,-1,-124.9828261,9,-1,-4.982826064,4,-64.98282606,2,55.01717394,6,7,8,26,-124.9828261,-4.982826064,-64.98282606,55.01717394,-34.98282606,85.01717394,25.01717394,145.0171739
1,13,0,-1,-124.9828261,9,-1,-4.982826064,4,-64.98282606,2,55.01717394,6,3,6,45,-124.9828261,-4.982826064,-64.98282606,55.01717394,-34.98282606,85.01717394,25.01717394,145.0171739
1,13,0,-1,-124.9828261,9,-1,-4.982826064,4,-64.98282606,2,55.01717394,6,0,2,60,-124.9828261,-4.982826064,-64.98282606,55.01717394,-34.98282606,85.01717394,25.01717394,145.0171739
1,14,0,1,-57.47068687,6,1,62.52931313,9,2.529313127,4,122.5293131,3,1,3,57,-57.47068687,62.52931313,2.529313127,122.5293131,32.52931313,152.5293131,92.52931313,212.5293131
1,14,0,1,-57.47068687,6,1,62.52931313,9,2.529313127,4,122.5293131,3,5,1,60,-57.47068687,62.52931313,2.529313127,122.5293131,32.52931313,152.5293131,92.52931313,212.5293131
1,14,0,1,-57.47068687,6,1,62.52931313,9,2.529313127,4,122.5293131,3,1,9,65,-57.47068687,62.52931313,2.529313127,122.5293131,32.52931313,152.5293131,92.52931313,212.5293131
1,14,0,1,-57.47068687,6,1,62.52931313,9,2.529313127,4,122.5293131,3,7,7,62,-57.47068687,62.52931313,2.529313127,122.5293131,32.52931313,152.5293131,92.52931313,212.5293131
1,14,0,1,-57.47068687,6,1,62.52931313,9,2.529313127,4,122.5293131,3,6,8,58,-57.47068687,62.52931313,2.529313127,122.5293131,32.52931313,152.5293131,92.52931313,212.5293131
1,14,0,1,-57.47068687,6,1,62.52931313,9,2.529313127,4,122.5293131,3,0,5,71,-57.47068687,62.52931313,2.529313127,122.5293131,32.52931313,152.5293131,92.52931313,212.5293131
1,14,0,1,-57.47068687,6,1,62.52931313,9,2.529313127,4,122.5293131,3,5,2,32,-57.47068687,62.52931313,2.529313127,122.5293131,32.52931313,152.5293131,92.52931313,212.5293131
1,14,0,1,-57.47068687,6,1,62.52931313,9,2.529313127,4,122.5293131,3,3,6,60,-57.47068687,62.52931313,2.529313127,122.5293131,32.52931313,152.5293131,92.52931313,212.5293131
1,14,0,1,-57.47068687,6,1,62.52931313,9,2.529313127,4,122.5293131,3,3,4,51,-57.47068687,62.52931313,2.529313127,122.5293131,32.52931313,152.5293131,92.52931313,212.5293131
1,15,0,1,72.62746588,8,1,192.6274659,1,132.6274659,8,252.6274659,3,6,5,49,72.62746588,192.6274659,132.6274659,252.6274659,162.6274659,282.6274659,222.6274659,342.6274659
1,15,0,1,72.62746588,8,1,192.6274659,1,132.6274659,8,252.6274659,3,5,6,58,72.62746588,192.6274659,132.6274659,252.6274659,162.6274659,282.6274659,222.6274659,342.6274659
1,15,0,1,72.62746588,8,1,192.6274659,1,132.6274659,8,252.6274659,3,5,9,51,72.62746588,192.6274659,132.6274659,252.6274659,162.6274659,282.6274659,222.6274659,342.6274659
1,15,0,1,72.62746588,8,1,192.6274659,1,132.6274659,8,252.6274659,3,0,1,55,72.62746588,192.6274659,132.6274659,252.6274659,162.6274659,282.6274659,222.6274659,342.6274659
1,15,0,1,72.62746588,8,1,192.6274659,1,132.6274659,8,252.6274659,3,5,2,65,72.62746588,192.6274659,132.6274659,252.6274659,162.6274659,282.6274659,222.6274659,342.6274659
1,15,0,1,72.62746588,8,1,192.6274659,1,132.6274659,8,252.6274659,3,3,3,60,72.62746588,192.6274659,132.6274659,252.6274659,162.6274659,282.6274659,222.6274659,342.6274659
1,15,0,1,72.62746588,8,1,192.6274659,1,132.6274659,8,252.6274659,3,5,4,44,72.62746588,192.6274659,132.6274659,252.6274659,162.6274659,282.6274659,222.6274659,342.6274659
1,15,0,1,72.62746588,8,1,192.6274659,1,132.6274659,8,252.6274659,3,6,7,46,72.62746588,192.6274659,132.6274659,252.6274659,162.6274659,282.6274659,222.6274659,342.6274659
1,15,0,1,72.62746588,8,1,192.6274659,1,132.6274659,8,252.6274659,3,6,8,45,72.62746588,192.6274659,132.6274659,252.6274659,162.6274659,282.6274659,222.6274659,342.6274659
1,16,0,-1,25.12423563,5,-1,145.1242356,7,85.12423563,5,205.1242356,5,1,3,60,25.12423563,145.1242356,85.12423563,205.1242356,115.1242356,235.1242356,175.1242356,295.1242356
1,16,0,-1,25.12423563,5,-1,145.1242356,7,85.12423563,5,205.1242356,5,6,6,65,25.12423563,145.1242356,85.12423563,205.1242356,115.1242356,235.1242356,175.1242356,295.1242356
1,16,0,-1,25.12423563,5,-1,145.1242356,7,85.12423563,5,205.1242356,5,3,9,74,25.12423563,145.1242356,85.12423563,205.1242356,115.1242356,235.1242356,175.1242356,295.1242356
1,16,0,-1,25.12423563,5,-1,145.1242356,7,85.12423563,5,205.1242356,5,0,4,72,25.12423563,145.1242356,85.12423563,205.1242356,115.1242356,235.1242356,175.1242356,295.1242356
1,16,0,-1,25.12423563,5,-1,145.1242356,7,85.12423563,5,205.1242356,5,0,2,53,25.12423563,145.1242356,85.12423563,205.1242356,115.1242356,235.1242356,175.1242356,295.1242356
1,16,0,-1,25.12423563,5,-1,145.1242356,7,85.12423563,5,205.1242356,5,4,1,69,25.12423563,145.1242356,85.12423563,205.1242356,115.1242356,235.1242356,175.1242356,295.1242356
1,16,0,-1,25.12423563,5,-1,145.1242356,7,85.12423563,5,205.1242356,5,2,7,66,25.12423563,145.1242356,85.12423563,205.1242356,115.1242356,235.1242356,175.1242356,295.1242356
1,16,0,-1,25.12423563,5,-1,145.1242356,7,85.12423563,5,205.1242356,5,0,8,77,25.12423563,145.1242356,85.12423563,205.1242356,115.1242356,235.1242356,175.1242356,295.1242356
1,16,0,-1,25.12423563,5,-1,145.1242356,7,85.12423563,5,205.1242356,5,5,5,69,25.12423563,145.1242356,85.12423563,205.1242356,115.1242356,235.1242356,175.1242356,295.1242356
1,17,0,-1,-5.899374938,8,-1,114.1006251,2,54.10062506,2,174.1006251,3,6,3,50,-5.899374938,114.1006251,54.10062506,174.1006251,84.10062506,204.1006251,144.1006251,264.1006251
1,17,0,-1,-5.899374938,8,-1,114.1006251,2,54.10062506,2,174.1006251,3,2,5,54,-5.899374938,114.1006251,54.10062506,174.1006251,84.10062506,204.1006251,144.1006251,264.1006251
1,17,0,-1,-5.899374938,8,-1,114.1006251,2,54.10062506,2,174.1006251,3,6,1,50,-5.899374938,114.1006251,54.10062506,174.1006251,84.10062506,204.1006251,144.1006251,264.1006251
1,17,0,-1,-5.899374938,8,-1,114.1006251,2,54.10062506,2,174.1006251,3,6,6,67,-5.899374938,114.1006251,54.10062506,174.1006251,84.10062506,204.1006251,144.1006251,264.1006251
1,17,0,-1,-5.899374938,8,-1,114.1006251,2,54.10062506,2,174.1006251,3,6,9,59,-5.899374938,114.1006251,54.10062506,174.1006251,84.10062506,204.1006251,144.1006251,264.1006251
1,17,0,-1,-5.899374938,8,-1,114.1006251,2,54.10062506,2,174.1006251,3,1,8,102,-5.899374938,114.1006251,54.10062506,174.1006251,84.10062506,204.1006251,144.1006251,264.1006251
1,17,0,-1,-5.899374938,8,-1,114.1006251,2,54.10062506,2,174.1006251,3,6,7,58,-5.899374938,114.1006251,54.10062506,174.1006251,84.10062506,204.1006251,144.1006251,264.1006251
1,17,0,-1,-5.899374938,8,-1,114.1006251,2,54.10062506,2,174.1006251,3,7,4,56,-5.899374938,114.1006251,54.10062506,174.1006251,84.10062506,204.1006251,144.1006251,264.1006251
1,17,0,-1,-5.899374938,8,-1,114.1006251,2,54.10062506,2,174.1006251,3,7,2,75,-5.899374938,114.1006251,54.10062506,174.1006251,84.10062506,204.1006251,144.1006251,264.1006251
1,18,0,-1,129.5894478,2,-1,249.5894478,5,189.5894478,1,309.5894478,7,7,9,66,129.5894478,249.5894478,189.5894478,309.5894478,219.5894478,339.5894478,279.5894478,399.5894478
1,18,0,-1,129.5894478,2,-1,249.5894478,5,189.5894478,1,309.5894478,7,4,6,97,129.5894478,249.5894478,189.5894478,309.5894478,219.5894478,339.5894478,279.5894478,399.5894478
1,18,0,-1,129.5894478,2,-1,249.5894478,5,189.5894478,1,309.5894478,7,2,1,73,129.5894478,249.5894478,189.5894478,309.5894478,219.5894478,339.5894478,279.5894478,399.5894478
1,18,0,-1,129.5894478,2,-1,249.5894478,5,189.5894478,1,309.5894478,7,1,8,67,129.5894478,249.5894478,189.5894478,309.5894478,219.5894478,339.5894478,279.5894478,399.5894478
1,18,0,-1,129.5894478,2,-1,249.5894478,5,189.5894478,1,309.5894478,7,4,7,55,129.5894478,249.5894478,189.5894478,309.5894478,219.5894478,339.5894478,279.5894478,399.5894478
1,18,0,-1,129.5894478,2,-1,249.5894478,5,189.5894478,1,309.5894478,7,0,4,79,129.5894478,249.5894478,189.5894478,309.5894478,219.5894478,339.5894478,279.5894478,399.5894478
1,18,0,-1,129.5894478,2,-1,249.5894478,5,189.5894478,1,309.5894478,7,7,3,77,129.5894478,249.5894478,189.5894478,309.5894478,219.5894478,339.5894478,279.5894478,399.5894478
1,18,0,-1,129.5894478,2,-1,249.5894478,5,189.5894478,1,309.5894478,7,3,2,55,129.5894478,249.5894478,189.5894478,309.5894478,219.5894478,339.5894478,279.5894478,399.5894478
1,18,0,-1,129.5894478,2,-1,249.5894478,5,189.5894478,1,309.5894478,7,2,5,73,129.5894478,249.5894478,189.5894478,309.5894478,219.5894478,339.5894478,279.5894478,399.5894478
