subject	trial_number	Cross_position	Circle_1	Position_1	Color_1	Circle_2	Position_2	Color_2	Position_3	Color_3	Position_4	Color_4	p_confidence	response_color	response_time	angle_1	angle_2	angle_3	angle_4	angle_1_cue	angle_2_cue	angle_3_cue	angle_4_cue
1	0	0	0	0	0	0	0	0	0	0	0	0	0	-1	0	0	0	0	0	0	0	0	0
1	0	0	0	0	0	0	0	0	0	0	0	0	0	-1	0	0	0	0	0	0	0	0	0
1	0	0	0	0	0	0	0	0	0	0	0	0	0	-1	0	0	0	0	0	0	0	0	0
1	0	0	0	0	0	0	0	0	0	0	0	0	0	-1	0	0	0	0	0	0	0	0	0
1	0	0	0	0	0	0	0	0	0	0	0	0	0	-1	0	0	0	0	0	0	0	0	0
1	0	0	0	0	0	0	0	0	0	0	0	0	0	-1	0	0	0	0	0	0	0	0	0
1	0	0	0	0	0	0	0	0	0	0	0	0	0	-1	0	0	0	0	0	0	0	0	0
1	0	0	0	0	0	0	0	0	0	0	0	0	3	5	55	-139.0396896561234427736	-19.0396896561234427736	-79.0396896561234427736	40.9603103438765572264	-49.0396896561234427736	70.9603103438765572264	10.9603103438765572264	130.9603103438765572264
1	1	0	-1	-1.3291826335082816968	3	-1	118.6708173664917183032	7	58.6708173664917183032	7	178.6708173664917183032	5	1	5	65	-1.3291826335082816968	118.6708173664917183032	58.6708173664917183032	178.6708173664917183032	88.6708173664917183032	208.6708173664917183032	148.6708173664917183032	268.6708173664917467249
1	1	0	-1	-1.3291826335082816968	3	-1	118.6708173664917183032	7	58.6708173664917183032	7	178.6708173664917183032	5	5	6	62	-1.3291826335082816968	118.6708173664917183032	58.6708173664917183032	178.6708173664917183032	88.6708173664917183032	208.6708173664917183032	148.6708173664917183032	268.6708173664917467249
1	1	0	-1	-1.3291826335082816968	3	-1	118.6708173664917183032	7	58.6708173664917183032	7	178.6708173664917183032	5	1	4	42	-1.3291826335082816968	118.6708173664917183032	58.6708173664917183032	178.6708173664917183032	88.6708173664917183032	208.6708173664917183032	148.6708173664917183032	268.6708173664917467249
1	1	0	-1	-1.3291826335082816968	3	-1	118.6708173664917183032	7	58.6708173664917183032	7	178.6708173664917183032	5	6	8	53	-1.3291826335082816968	118.6708173664917183032	58.6708173664917183032	178.6708173664917183032	88.6708173664917183032	208.6708173664917183032	148.6708173664917183032	268.6708173664917467249
1	1	0	-1	-1.3291826335082816968	3	-1	118.6708173664917183032	7	58.6708173664917183032	7	178.6708173664917183032	5	2	7	53	-1.3291826335082816968	118.6708173664917183032	58.6708173664917183032	178.6708173664917183032	88.6708173664917183032	208.6708173664917183032	148.6708173664917183032	268.6708173664917467249
1	1	0	-1	-1.3291826335082816968	3	-1	118.6708173664917183032	7	58.6708173664917183032	7	178.6708173664917183032	5	5	1	50	-1.3291826335082816968	118.6708173664917183032	58.6708173664917183032	178.6708173664917183032	88.6708173664917183032	208.6708173664917183032	148.6708173664917183032	268.6708173664917467249
1	1	0	-1	-1.3291826335082816968	3	-1	118.6708173664917183032	7	58.6708173664917183032	7	178.6708173664917183032	5	0	2	64	-1.3291826335082816968	118.6708173664917183032	58.6708173664917183032	178.6708173664917183032	88.6708173664917183032	208.6708173664917183032	148.6708173664917183032	268.6708173664917467249
1	1	0	-1	-1.3291826335082816968	3	-1	118.6708173664917183032	7	58.6708173664917183032	7	178.6708173664917183032	5	3	9	53	-1.3291826335082816968	118.6708173664917183032	58.6708173664917183032	178.6708173664917183032	88.6708173664917183032	208.6708173664917183032	148.6708173664917183032	268.6708173664917467249
1	1	0	-1	-1.3291826335082816968	3	-1	118.6708173664917183032	7	58.6708173664917183032	7	178.6708173664917183032	5	5	3	70	-1.3291826335082816968	118.6708173664917183032	58.6708173664917183032	178.6708173664917183032	88.6708173664917183032	208.6708173664917183032	148.6708173664917183032	268.6708173664917467249
1	2	0	-1	-102.1384828915210647438	6	-1	17.8615171084789352562	9	-42.1384828915210647438	7	77.8615171084789352562	7	3	9	27	-102.1384828915210647438	17.8615171084789352562	-42.1384828915210647438	77.8615171084789352562	-12.1384828915210647438	107.8615171084789352562	47.8615171084789352562	167.8615171084789494671
1	2	0	-1	-102.1384828915210647438	6	-1	17.8615171084789352562	9	-42.1384828915210647438	7	77.8615171084789352562	7	0	8	59	-102.1384828915210647438	17.8615171084789352562	-42.1384828915210647438	77.8615171084789352562	-12.1384828915210647438	107.8615171084789352562	47.8615171084789352562	167.8615171084789494671
1	2	0	-1	-102.1384828915210647438	6	-1	17.8615171084789352562	9	-42.1384828915210647438	7	77.8615171084789352562	7	4	6	51	-102.1384828915210647438	17.8615171084789352562	-42.1384828915210647438	77.8615171084789352562	-12.1384828915210647438	107.8615171084789352562	47.8615171084789352562	167.8615171084789494671
1	2	0	-1	-102.1384828915210647438	6	-1	17.8615171084789352562	9	-42.1384828915210647438	7	77.8615171084789352562	7	7	1	38	-102.1384828915210647438	17.8615171084789352562	-42.1384828915210647438	77.8615171084789352562	-12.1384828915210647438	107.8615171084789352562	47.8615171084789352562	167.8615171084789494671
1	2	0	-1	-102.1384828915210647438	6	-1	17.8615171084789352562	9	-42.1384828915210647438	7	77.8615171084789352562	7	4	7	52	-102.1384828915210647438	17.8615171084789352562	-42.1384828915210647438	77.8615171084789352562	-12.1384828915210647438	107.8615171084789352562	47.8615171084789352562	167.8615171084789494671
1	2	0	-1	-102.1384828915210647438	6	-1	17.8615171084789352562	9	-42.1384828915210647438	7	77.8615171084789352562	7	7	5	53	-102.1384828915210647438	17.8615171084789352562	-42.1384828915210647438	77.8615171084789352562	-12.1384828915210647438	107.8615171084789352562	47.8615171084789352562	167.8615171084789494671
1	2	0	-1	-102.1384828915210647438	6	-1	17.8615171084789352562	9	-42.1384828915210647438	7	77.8615171084789352562	7	7	2	79	-102.1384828915210647438	17.8615171084789352562	-42.1384828915210647438	77.8615171084789352562	-12.1384828915210647438	107.8615171084789352562	47.8615171084789352562	167.8615171084789494671
1	2	0	-1	-102.1384828915210647438	6	-1	17.8615171084789352562	9	-42.1384828915210647438	7	77.8615171084789352562	7	7	4	60	-102.1384828915210647438	17.8615171084789352562	-42.1384828915210647438	77.8615171084789352562	-12.1384828915210647438	107.8615171084789352562	47.8615171084789352562	167.8615171084789494671
1	2	0	-1	-102.1384828915210647438	6	-1	17.8615171084789352562	9	-42.1384828915210647438	7	77.8615171084789352562	7	4	3	66	-102.1384828915210647438	17.8615171084789352562	-42.1384828915210647438	77.8615171084789352562	-12.1384828915210647438	107.8615171084789352562	47.8615171084789352562	167.8615171084789494671
1	3	0	-1	-16.8940711386720749942	1	-1	103.1059288613279250058	4	43.1059288613279250058	8	163.1059288613279250058	4	3	7	54	-16.8940711386720749942	103.1059288613279250058	43.1059288613279250058	163.1059288613279250058	73.1059288613279250058	193.1059288613279250058	133.1059288613279250058	253.1059288613279250058
1	3	0	-1	-16.8940711386720749942	1	-1	103.1059288613279250058	4	43.1059288613279250058	8	163.1059288613279250058	4	6	8	59	-16.8940711386720749942	103.1059288613279250058	43.1059288613279250058	163.1059288613279250058	73.1059288613279250058	193.1059288613279250058	133.1059288613279250058	253.1059288613279250058
1	3	0	-1	-16.8940711386720749942	1	-1	103.1059288613279250058	4	43.1059288613279250058	8	163.1059288613279250058	4	7	6	70	-16.8940711386720749942	103.1059288613279250058	43.1059288613279250058	163.1059288613279250058	73.1059288613279250058	193.1059288613279250058	133.1059288613279250058	253.1059288613279250058
1	3	0	-1	-16.8940711386720749942	1	-1	103.1059288613279250058	4	43.1059288613279250058	8	163.1059288613279250058	4	4	4	66	-16.8940711386720749942	103.1059288613279250058	43.1059288613279250058	163.1059288613279250058	73.1059288613279250058	193.1059288613279250058	133.1059288613279250058	253.1059288613279250058
1	3	0	-1	-16.8940711386720749942	1	-1	103.1059288613279250058	4	43.1059288613279250058	8	163.1059288613279250058	4	1	5	39	-16.8940711386720749942	103.1059288613279250058	43.1059288613279250058	163.1059288613279250058	73.1059288613279250058	193.1059288613279250058	133.1059288613279250058	253.1059288613279250058
1	3	0	-1	-16.8940711386720749942	1	-1	103.1059288613279250058	4	43.1059288613279250058	8	163.1059288613279250058	4	2	9	60	-16.8940711386720749942	103.1059288613279250058	43.1059288613279250058	163.1059288613279250058	73.1059288613279250058	193.1059288613279250058	133.1059288613279250058	253.1059288613279250058
1	3	0	-1	-16.8940711386720749942	1	-1	103.1059288613279250058	4	43.1059288613279250058	8	163.1059288613279250058	4	3	1	59	-16.8940711386720749942	103.1059288613279250058	43.1059288613279250058	163.1059288613279250058	73.1059288613279250058	193.1059288613279250058	133.1059288613279250058	253.1059288613279250058
1	3	0	-1	-16.8940711386720749942	1	-1	103.1059288613279250058	4	43.1059288613279250058	8	163.1059288613279250058	4	7	3	57	-16.8940711386720749942	103.1059288613279250058	43.1059288613279250058	163.1059288613279250058	73.1059288613279250058	193.1059288613279250058	133.1059288613279250058	253.1059288613279250058
1	3	0	-1	-16.8940711386720749942	1	-1	103.1059288613279250058	4	43.1059288613279250058	8	163.1059288613279250058	4	1	2	36	-16.8940711386720749942	103.1059288613279250058	43.1059288613279250058	163.1059288613279250058	73.1059288613279250058	193.1059288613279250058	133.1059288613279250058	253.1059288613279250058
1	4	0	1	2.0031563802629648308	1	1	122.0031563802629648308	5	62.0031563802629648308	5	182.0031563802629648308	7	7	3	61	2.0031563802629648308	122.0031563802629648308	62.0031563802629648308	182.0031563802629648308	92.0031563802629648308	212.0031563802629648308	152.0031563802629648308	272.0031563802629648308
1	4	0	1	2.0031563802629648308	1	1	122.0031563802629648308	5	62.0031563802629648308	5	182.0031563802629648308	7	2	9	70	2.0031563802629648308	122.0031563802629648308	62.0031563802629648308	182.0031563802629648308	92.0031563802629648308	212.0031563802629648308	152.0031563802629648308	272.0031563802629648308
1	4	0	1	2.0031563802629648308	1	1	122.0031563802629648308	5	62.0031563802629648308	5	182.0031563802629648308	7	7	1	76	2.0031563802629648308	122.0031563802629648308	62.0031563802629648308	182.0031563802629648308	92.0031563802629648308	212.0031563802629648308	152.0031563802629648308	272.0031563802629648308
1	4	0	1	2.0031563802629648308	1	1	122.0031563802629648308	5	62.0031563802629648308	5	182.0031563802629648308	7	7	4	56	2.0031563802629648308	122.0031563802629648308	62.0031563802629648308	182.0031563802629648308	92.0031563802629648308	212.0031563802629648308	152.0031563802629648308	272.0031563802629648308
1	4	0	1	2.0031563802629648308	1	1	122.0031563802629648308	5	62.0031563802629648308	5	182.0031563802629648308	7	1	5	72	2.0031563802629648308	122.0031563802629648308	62.0031563802629648308	182.0031563802629648308	92.0031563802629648308	212.0031563802629648308	152.0031563802629648308	272.0031563802629648308
1	4	0	1	2.0031563802629648308	1	1	122.0031563802629648308	5	62.0031563802629648308	5	182.0031563802629648308	7	3	7	57	2.0031563802629648308	122.0031563802629648308	62.0031563802629648308	182.0031563802629648308	92.0031563802629648308	212.0031563802629648308	152.0031563802629648308	272.0031563802629648308
1	4	0	1	2.0031563802629648308	1	1	122.0031563802629648308	5	62.0031563802629648308	5	182.0031563802629648308	7	6	8	76	2.0031563802629648308	122.0031563802629648308	62.0031563802629648308	182.0031563802629648308	92.0031563802629648308	212.0031563802629648308	152.0031563802629648308	272.0031563802629648308
1	4	0	1	2.0031563802629648308	1	1	122.0031563802629648308	5	62.0031563802629648308	5	182.0031563802629648308	7	1	2	87	2.0031563802629648308	122.0031563802629648308	62.0031563802629648308	182.0031563802629648308	92.0031563802629648308	212.0031563802629648308	152.0031563802629648308	272.0031563802629648308
1	4	0	1	2.0031563802629648308	1	1	122.0031563802629648308	5	62.0031563802629648308	5	182.0031563802629648308	7	7	6	38	2.0031563802629648308	122.0031563802629648308	62.0031563802629648308	182.0031563802629648308	92.0031563802629648308	212.0031563802629648308	152.0031563802629648308	272.0031563802629648308
1	5	0	1	-32.6402326330170637902	4	1	87.3597673669829362098	3	27.3597673669829362098	8	147.3597673669829362098	5	0	7	64	-32.6402326330170637902	87.3597673669829362098	27.3597673669829362098	147.3597673669829362098	57.3597673669829362098	177.3597673669829362098	117.3597673669829362098	237.3597673669829362098
1	5	0	1	-32.6402326330170637902	4	1	87.3597673669829362098	3	27.3597673669829362098	8	147.3597673669829362098	5	2	2	52	-32.6402326330170637902	87.3597673669829362098	27.3597673669829362098	147.3597673669829362098	57.3597673669829362098	177.3597673669829362098	117.3597673669829362098	237.3597673669829362098
1	5	0	1	-32.6402326330170637902	4	1	87.3597673669829362098	3	27.3597673669829362098	8	147.3597673669829362098	5	7	6	45	-32.6402326330170637902	87.3597673669829362098	27.3597673669829362098	147.3597673669829362098	57.3597673669829362098	177.3597673669829362098	117.3597673669829362098	237.3597673669829362098
1	5	0	1	-32.6402326330170637902	4	1	87.3597673669829362098	3	27.3597673669829362098	8	147.3597673669829362098	5	7	5	63	-32.6402326330170637902	87.3597673669829362098	27.3597673669829362098	147.3597673669829362098	57.3597673669829362098	177.3597673669829362098	117.3597673669829362098	237.3597673669829362098
1	5	0	1	-32.6402326330170637902	4	1	87.3597673669829362098	3	27.3597673669829362098	8	147.3597673669829362098	5	3	1	77	-32.6402326330170637902	87.3597673669829362098	27.3597673669829362098	147.3597673669829362098	57.3597673669829362098	177.3597673669829362098	117.3597673669829362098	237.3597673669829362098
1	5	0	1	-32.6402326330170637902	4	1	87.3597673669829362098	3	27.3597673669829362098	8	147.3597673669829362098	5	2	9	49	-32.6402326330170637902	87.3597673669829362098	27.3597673669829362098	147.3597673669829362098	57.3597673669829362098	177.3597673669829362098	117.3597673669829362098	237.3597673669829362098
1	5	0	1	-32.6402326330170637902	4	1	87.3597673669829362098	3	27.3597673669829362098	8	147.3597673669829362098	5	7	4	70	-32.6402326330170637902	87.3597673669829362098	27.3597673669829362098	147.3597673669829362098	57.3597673669829362098	177.3597673669829362098	117.3597673669829362098	237.3597673669829362098
1	5	0	1	-32.6402326330170637902	4	1	87.3597673669829362098	3	27.3597673669829362098	8	147.3597673669829362098	5	6	8	58	-32.6402326330170637902	87.3597673669829362098	27.3597673669829362098	147.3597673669829362098	57.3597673669829362098	177.3597673669829362098	117.3597673669829362098	237.3597673669829362098
1	5	0	1	-32.6402326330170637902	4	1	87.3597673669829362098	3	27.3597673669829362098	8	147.3597673669829362098	5	1	3	58	-32.6402326330170637902	87.3597673669829362098	27.3597673669829362098	147.3597673669829362098	57.3597673669829362098	177.3597673669829362098	117.3597673669829362098	237.3597673669829362098
1	6	0	1	37.3301557305572089263	2	1	157.3301557305572089263	8	97.3301557305572089263	6	217.3301557305572089263	6	0	9	68	37.3301557305572089263	157.3301557305572089263	97.3301557305572089263	217.3301557305572089263	127.3301557305572089263	247.3301557305572089263	187.3301557305572089263	307.3301557305571805045
1	6	0	1	37.3301557305572089263	2	1	157.3301557305572089263	8	97.3301557305572089263	6	217.3301557305572089263	6	2	2	51	37.3301557305572089263	157.3301557305572089263	97.3301557305572089263	217.3301557305572089263	127.3301557305572089263	247.3301557305572089263	187.3301557305572089263	307.3301557305571805045
1	6	0	1	37.3301557305572089263	2	1	157.3301557305572089263	8	97.3301557305572089263	6	217.3301557305572089263	6	1	1	67	37.3301557305572089263	157.3301557305572089263	97.3301557305572089263	217.3301557305572089263	127.3301557305572089263	247.3301557305572089263	187.3301557305572089263	307.3301557305571805045
1	6	0	1	37.3301557305572089263	2	1	157.3301557305572089263	8	97.3301557305572089263	6	217.3301557305572089263	6	4	3	55	37.3301557305572089263	157.3301557305572089263	97.3301557305572089263	217.3301557305572089263	127.3301557305572089263	247.3301557305572089263	187.3301557305572089263	307.3301557305571805045
1	6	0	1	37.3301557305572089263	2	1	157.3301557305572089263	8	97.3301557305572089263	6	217.3301557305572089263	6	3	7	27	37.3301557305572089263	157.3301557305572089263	97.3301557305572089263	217.3301557305572089263	127.3301557305572089263	247.3301557305572089263	187.3301557305572089263	307.3301557305571805045
1	6	0	1	37.3301557305572089263	2	1	157.3301557305572089263	8	97.3301557305572089263	6	217.3301557305572089263	6	7	5	87	37.3301557305572089263	157.3301557305572089263	97.3301557305572089263	217.3301557305572089263	127.3301557305572089263	247.3301557305572089263	187.3301557305572089263	307.3301557305571805045
1	6	0	1	37.3301557305572089263	2	1	157.3301557305572089263	8	97.3301557305572089263	6	217.3301557305572089263	6	6	4	40	37.3301557305572089263	157.3301557305572089263	97.3301557305572089263	217.3301557305572089263	127.3301557305572089263	247.3301557305572089263	187.3301557305572089263	307.3301557305571805045
1	6	0	1	37.3301557305572089263	2	1	157.3301557305572089263	8	97.3301557305572089263	6	217.3301557305572089263	6	7	6	70	37.3301557305572089263	157.3301557305572089263	97.3301557305572089263	217.3301557305572089263	127.3301557305572089263	247.3301557305572089263	187.3301557305572089263	307.3301557305571805045
1	6	0	1	37.3301557305572089263	2	1	157.3301557305572089263	8	97.3301557305572089263	6	217.3301557305572089263	6	0	8	79	37.3301557305572089263	157.3301557305572089263	97.3301557305572089263	217.3301557305572089263	127.3301557305572089263	247.3301557305572089263	187.3301557305572089263	307.3301557305571805045
1	7	0	-1	-2.0154615170358454179	4	-1	117.9845384829641545821	2	57.9845384829641545821	2	177.9845384829641545821	6	2	3	59	-2.0154615170358454179	117.9845384829641545821	57.9845384829641545821	177.9845384829641545821	87.9845384829641545821	207.9845384829641545821	147.9845384829641545821	267.9845384829641261604
1	7	0	-1	-2.0154615170358454179	4	-1	117.9845384829641545821	2	57.9845384829641545821	2	177.9845384829641545821	6	2	7	54	-2.0154615170358454179	117.9845384829641545821	57.9845384829641545821	177.9845384829641545821	87.9845384829641545821	207.9845384829641545821	147.9845384829641545821	267.9845384829641261604
1	7	0	-1	-2.0154615170358454179	4	-1	117.9845384829641545821	2	57.9845384829641545821	2	177.9845384829641545821	6	7	8	58	-2.0154615170358454179	117.9845384829641545821	57.9845384829641545821	177.9845384829641545821	87.9845384829641545821	207.9845384829641545821	147.9845384829641545821	267.9845384829641261604
1	7	0	-1	-2.0154615170358454179	4	-1	117.9845384829641545821	2	57.9845384829641545821	2	177.9845384829641545821	6	5	9	45	-2.0154615170358454179	117.9845384829641545821	57.9845384829641545821	177.9845384829641545821	87.9845384829641545821	207.9845384829641545821	147.9845384829641545821	267.9845384829641261604
1	7	0	-1	-2.0154615170358454179	4	-1	117.9845384829641545821	2	57.9845384829641545821	2	177.9845384829641545821	6	4	4	79	-2.0154615170358454179	117.9845384829641545821	57.9845384829641545821	177.9845384829641545821	87.9845384829641545821	207.9845384829641545821	147.9845384829641545821	267.9845384829641261604
1	7	0	-1	-2.0154615170358454179	4	-1	117.9845384829641545821	2	57.9845384829641545821	2	177.9845384829641545821	6	7	5	75	-2.0154615170358454179	117.9845384829641545821	57.9845384829641545821	177.9845384829641545821	87.9845384829641545821	207.9845384829641545821	147.9845384829641545821	267.9845384829641261604
1	7	0	-1	-2.0154615170358454179	4	-1	117.9845384829641545821	2	57.9845384829641545821	2	177.9845384829641545821	6	3	1	64	-2.0154615170358454179	117.9845384829641545821	57.9845384829641545821	177.9845384829641545821	87.9845384829641545821	207.9845384829641545821	147.9845384829641545821	267.9845384829641261604
1	7	0	-1	-2.0154615170358454179	4	-1	117.9845384829641545821	2	57.9845384829641545821	2	177.9845384829641545821	6	6	2	70	-2.0154615170358454179	117.9845384829641545821	57.9845384829641545821	177.9845384829641545821	87.9845384829641545821	207.9845384829641545821	147.9845384829641545821	267.9845384829641261604
1	7	0	-1	-2.0154615170358454179	4	-1	117.9845384829641545821	2	57.9845384829641545821	2	177.9845384829641545821	6	2	6	70	-2.0154615170358454179	117.9845384829641545821	57.9845384829641545821	177.9845384829641545821	87.9845384829641545821	207.9845384829641545821	147.9845384829641545821	267.9845384829641261604
1	8	0	-1	-55.8385109705474462771	7	-1	64.1614890294525537229	4	4.1614890294525537229	7	124.1614890294525537229	7	7	4	55	-55.8385109705474462771	64.1614890294525537229	4.1614890294525537229	124.1614890294525537229	34.1614890294525537229	154.1614890294525537229	94.1614890294525537229	214.1614890294525537229
1	8	0	-1	-55.8385109705474462771	7	-1	64.1614890294525537229	4	4.1614890294525537229	7	124.1614890294525537229	7	5	6	85	-55.8385109705474462771	64.1614890294525537229	4.1614890294525537229	124.1614890294525537229	34.1614890294525537229	154.1614890294525537229	94.1614890294525537229	214.1614890294525537229
1	8	0	-1	-55.8385109705474462771	7	-1	64.1614890294525537229	4	4.1614890294525537229	7	124.1614890294525537229	7	5	8	53	-55.8385109705474462771	64.1614890294525537229	4.1614890294525537229	124.1614890294525537229	34.1614890294525537229	154.1614890294525537229	94.1614890294525537229	214.1614890294525537229
1	8	0	-1	-55.8385109705474462771	7	-1	64.1614890294525537229	4	4.1614890294525537229	7	124.1614890294525537229	7	3	9	55	-55.8385109705474462771	64.1614890294525537229	4.1614890294525537229	124.1614890294525537229	34.1614890294525537229	154.1614890294525537229	94.1614890294525537229	214.1614890294525537229
1	8	0	-1	-55.8385109705474462771	7	-1	64.1614890294525537229	4	4.1614890294525537229	7	124.1614890294525537229	7	6	1	43	-55.8385109705474462771	64.1614890294525537229	4.1614890294525537229	124.1614890294525537229	34.1614890294525537229	154.1614890294525537229	94.1614890294525537229	214.1614890294525537229
1	8	0	-1	-55.8385109705474462771	7	-1	64.1614890294525537229	4	4.1614890294525537229	7	124.1614890294525537229	7	6	5	65	-55.8385109705474462771	64.1614890294525537229	4.1614890294525537229	124.1614890294525537229	34.1614890294525537229	154.1614890294525537229	94.1614890294525537229	214.1614890294525537229
1	8	0	-1	-55.8385109705474462771	7	-1	64.1614890294525537229	4	4.1614890294525537229	7	124.1614890294525537229	7	7	7	63	-55.8385109705474462771	64.1614890294525537229	4.1614890294525537229	124.1614890294525537229	34.1614890294525537229	154.1614890294525537229	94.1614890294525537229	214.1614890294525537229
1	8	0	-1	-55.8385109705474462771	7	-1	64.1614890294525537229	4	4.1614890294525537229	7	124.1614890294525537229	7	4	3	53	-55.8385109705474462771	64.1614890294525537229	4.1614890294525537229	124.1614890294525537229	34.1614890294525537229	154.1614890294525537229	94.1614890294525537229	214.1614890294525537229
1	8	0	-1	-55.8385109705474462771	7	-1	64.1614890294525537229	4	4.1614890294525537229	7	124.1614890294525537229	7	7	2	43	-55.8385109705474462771	64.1614890294525537229	4.1614890294525537229	124.1614890294525537229	34.1614890294525537229	154.1614890294525537229	94.1614890294525537229	214.1614890294525537229
1	9	0	1	67.3459590336647977438	7	1	187.3459590336647977438	8	127.3459590336647977438	1	247.3459590336647977438	7	5	6	49	67.3459590336647977438	187.3459590336647977438	127.3459590336647977438	247.3459590336647977438	157.3459590336647977438	277.3459590336648261655	217.3459590336647977438	337.3459590336648261655
1	9	0	1	67.3459590336647977438	7	1	187.3459590336647977438	8	127.3459590336647977438	1	247.3459590336647977438	7	6	1	57	67.3459590336647977438	187.3459590336647977438	127.3459590336647977438	247.3459590336647977438	157.3459590336647977438	277.3459590336648261655	217.3459590336647977438	337.3459590336648261655
1	9	0	1	67.3459590336647977438	7	1	187.3459590336647977438	8	127.3459590336647977438	1	247.3459590336647977438	7	3	8	67	67.3459590336647977438	187.3459590336647977438	127.3459590336647977438	247.3459590336647977438	157.3459590336647977438	277.3459590336648261655	217.3459590336647977438	337.3459590336648261655
1	9	0	1	67.3459590336647977438	7	1	187.3459590336647977438	8	127.3459590336647977438	1	247.3459590336647977438	7	6	9	68	67.3459590336647977438	187.3459590336647977438	127.3459590336647977438	247.3459590336647977438	157.3459590336647977438	277.3459590336648261655	217.3459590336647977438	337.3459590336648261655
1	9	0	1	67.3459590336647977438	7	1	187.3459590336647977438	8	127.3459590336647977438	1	247.3459590336647977438	7	6	2	70	67.3459590336647977438	187.3459590336647977438	127.3459590336647977438	247.3459590336647977438	157.3459590336647977438	277.3459590336648261655	217.3459590336647977438	337.3459590336648261655
1	9	0	1	67.3459590336647977438	7	1	187.3459590336647977438	8	127.3459590336647977438	1	247.3459590336647977438	7	7	7	41	67.3459590336647977438	187.3459590336647977438	127.3459590336647977438	247.3459590336647977438	157.3459590336647977438	277.3459590336648261655	217.3459590336647977438	337.3459590336648261655
1	9	0	1	67.3459590336647977438	7	1	187.3459590336647977438	8	127.3459590336647977438	1	247.3459590336647977438	7	7	5	59	67.3459590336647977438	187.3459590336647977438	127.3459590336647977438	247.3459590336647977438	157.3459590336647977438	277.3459590336648261655	217.3459590336647977438	337.3459590336648261655
1	9	0	1	67.3459590336647977438	7	1	187.3459590336647977438	8	127.3459590336647977438	1	247.3459590336647977438	7	2	3	60	67.3459590336647977438	187.3459590336647977438	127.3459590336647977438	247.3459590336647977438	157.3459590336647977438	277.3459590336648261655	217.3459590336647977438	337.3459590336648261655
1	9	0	1	67.3459590336647977438	7	1	187.3459590336647977438	8	127.3459590336647977438	1	247.3459590336647977438	7	1	4	77	67.3459590336647977438	187.3459590336647977438	127.3459590336647977438	247.3459590336647977438	157.3459590336647977438	277.3459590336648261655	217.3459590336647977438	337.3459590336648261655
1	10	0	1	-42.9282285326459032149	3	1	77.0717714673540967851	3	17.0717714673540967851	4	137.0717714673540967851	5	4	9	82	-42.9282285326459032149	77.0717714673540967851	17.0717714673540967851	137.0717714673540967851	47.0717714673540967851	167.0717714673540967851	107.0717714673540967851	227.0717714673540967851
1	10	0	1	-42.9282285326459032149	3	1	77.0717714673540967851	3	17.0717714673540967851	4	137.0717714673540967851	5	3	2	38	-42.9282285326459032149	77.0717714673540967851	17.0717714673540967851	137.0717714673540967851	47.0717714673540967851	167.0717714673540967851	107.0717714673540967851	227.0717714673540967851
1	10	0	1	-42.9282285326459032149	3	1	77.0717714673540967851	3	17.0717714673540967851	4	137.0717714673540967851	5	7	5	61	-42.9282285326459032149	77.0717714673540967851	17.0717714673540967851	137.0717714673540967851	47.0717714673540967851	167.0717714673540967851	107.0717714673540967851	227.0717714673540967851
1	10	0	1	-42.9282285326459032149	3	1	77.0717714673540967851	3	17.0717714673540967851	4	137.0717714673540967851	5	2	4	74	-42.9282285326459032149	77.0717714673540967851	17.0717714673540967851	137.0717714673540967851	47.0717714673540967851	167.0717714673540967851	107.0717714673540967851	227.0717714673540967851
1	10	0	1	-42.9282285326459032149	3	1	77.0717714673540967851	3	17.0717714673540967851	4	137.0717714673540967851	5	7	6	46	-42.9282285326459032149	77.0717714673540967851	17.0717714673540967851	137.0717714673540967851	47.0717714673540967851	167.0717714673540967851	107.0717714673540967851	227.0717714673540967851
1	10	0	1	-42.9282285326459032149	3	1	77.0717714673540967851	3	17.0717714673540967851	4	137.0717714673540967851	5	3	8	62	-42.9282285326459032149	77.0717714673540967851	17.0717714673540967851	137.0717714673540967851	47.0717714673540967851	167.0717714673540967851	107.0717714673540967851	227.0717714673540967851
1	10	0	1	-42.9282285326459032149	3	1	77.0717714673540967851	3	17.0717714673540967851	4	137.0717714673540967851	5	6	1	55	-42.9282285326459032149	77.0717714673540967851	17.0717714673540967851	137.0717714673540967851	47.0717714673540967851	167.0717714673540967851	107.0717714673540967851	227.0717714673540967851
1	10	0	1	-42.9282285326459032149	3	1	77.0717714673540967851	3	17.0717714673540967851	4	137.0717714673540967851	5	5	7	75	-42.9282285326459032149	77.0717714673540967851	17.0717714673540967851	137.0717714673540967851	47.0717714673540967851	167.0717714673540967851	107.0717714673540967851	227.0717714673540967851
1	10	0	1	-42.9282285326459032149	3	1	77.0717714673540967851	3	17.0717714673540967851	4	137.0717714673540967851	5	4	3	60	-42.9282285326459032149	77.0717714673540967851	17.0717714673540967851	137.0717714673540967851	47.0717714673540967851	167.0717714673540967851	107.0717714673540967851	227.0717714673540967851
1	11	0	1	73.7107292967174885234	9	1	193.7107292967174885234	3	133.7107292967174885234	1	253.7107292967174885234	8	2	3	69	73.7107292967174885234	193.7107292967174885234	133.7107292967174885234	253.7107292967174885234	163.7107292967174885234	283.7107292967174885234	223.7107292967174885234	343.7107292967174885234
1	11	0	1	73.7107292967174885234	9	1	193.7107292967174885234	3	133.7107292967174885234	1	253.7107292967174885234	8	5	2	79	73.7107292967174885234	193.7107292967174885234	133.7107292967174885234	253.7107292967174885234	163.7107292967174885234	283.7107292967174885234	223.7107292967174885234	343.7107292967174885234
1	11	0	1	73.7107292967174885234	9	1	193.7107292967174885234	3	133.7107292967174885234	1	253.7107292967174885234	8	0	5	65	73.7107292967174885234	193.7107292967174885234	133.7107292967174885234	253.7107292967174885234	163.7107292967174885234	283.7107292967174885234	223.7107292967174885234	343.7107292967174885234
1	11	0	1	73.7107292967174885234	9	1	193.7107292967174885234	3	133.7107292967174885234	1	253.7107292967174885234	8	6	8	44	73.7107292967174885234	193.7107292967174885234	133.7107292967174885234	253.7107292967174885234	163.7107292967174885234	283.7107292967174885234	223.7107292967174885234	343.7107292967174885234
1	11	0	1	73.7107292967174885234	9	1	193.7107292967174885234	3	133.7107292967174885234	1	253.7107292967174885234	8	5	6	63	73.7107292967174885234	193.7107292967174885234	133.7107292967174885234	253.7107292967174885234	163.7107292967174885234	283.7107292967174885234	223.7107292967174885234	343.7107292967174885234
1	11	0	1	73.7107292967174885234	9	1	193.7107292967174885234	3	133.7107292967174885234	1	253.7107292967174885234	8	1	7	93	73.7107292967174885234	193.7107292967174885234	133.7107292967174885234	253.7107292967174885234	163.7107292967174885234	283.7107292967174885234	223.7107292967174885234	343.7107292967174885234
1	11	0	1	73.7107292967174885234	9	1	193.7107292967174885234	3	133.7107292967174885234	1	253.7107292967174885234	8	2	1	90	73.7107292967174885234	193.7107292967174885234	133.7107292967174885234	253.7107292967174885234	163.7107292967174885234	283.7107292967174885234	223.7107292967174885234	343.7107292967174885234
1	11	0	1	73.7107292967174885234	9	1	193.7107292967174885234	3	133.7107292967174885234	1	253.7107292967174885234	8	0	4	51	73.7107292967174885234	193.7107292967174885234	133.7107292967174885234	253.7107292967174885234	163.7107292967174885234	283.7107292967174885234	223.7107292967174885234	343.7107292967174885234
1	11	0	1	73.7107292967174885234	9	1	193.7107292967174885234	3	133.7107292967174885234	1	253.7107292967174885234	8	7	9	83	73.7107292967174885234	193.7107292967174885234	133.7107292967174885234	253.7107292967174885234	163.7107292967174885234	283.7107292967174885234	223.7107292967174885234	343.7107292967174885234
1	12	0	1	76.0240121129955923607	5	1	196.0240121129955923607	4	136.0240121129955923607	4	256.0240121129955923607	8	4	6	59	76.0240121129955923607	196.0240121129955923607	136.0240121129955923607	256.0240121129955923607	166.0240121129955923607	286.0240121129955923607	226.0240121129955923607	346.0240121129955923607
1	12	0	1	76.0240121129955923607	5	1	196.0240121129955923607	4	136.0240121129955923607	4	256.0240121129955923607	8	5	8	71	76.0240121129955923607	196.0240121129955923607	136.0240121129955923607	256.0240121129955923607	166.0240121129955923607	286.0240121129955923607	226.0240121129955923607	346.0240121129955923607
1	12	0	1	76.0240121129955923607	5	1	196.0240121129955923607	4	136.0240121129955923607	4	256.0240121129955923607	8	3	4	81	76.0240121129955923607	196.0240121129955923607	136.0240121129955923607	256.0240121129955923607	166.0240121129955923607	286.0240121129955923607	226.0240121129955923607	346.0240121129955923607
1	12	0	1	76.0240121129955923607	5	1	196.0240121129955923607	4	136.0240121129955923607	4	256.0240121129955923607	8	6	5	89	76.0240121129955923607	196.0240121129955923607	136.0240121129955923607	256.0240121129955923607	166.0240121129955923607	286.0240121129955923607	226.0240121129955923607	346.0240121129955923607
1	12	0	1	76.0240121129955923607	5	1	196.0240121129955923607	4	136.0240121129955923607	4	256.0240121129955923607	8	4	7	65	76.0240121129955923607	196.0240121129955923607	136.0240121129955923607	256.0240121129955923607	166.0240121129955923607	286.0240121129955923607	226.0240121129955923607	346.0240121129955923607
1	12	0	1	76.0240121129955923607	5	1	196.0240121129955923607	4	136.0240121129955923607	4	256.0240121129955923607	8	3	2	110	76.0240121129955923607	196.0240121129955923607	136.0240121129955923607	256.0240121129955923607	166.0240121129955923607	286.0240121129955923607	226.0240121129955923607	346.0240121129955923607
1	12	0	1	76.0240121129955923607	5	1	196.0240121129955923607	4	136.0240121129955923607	4	256.0240121129955923607	8	6	3	44	76.0240121129955923607	196.0240121129955923607	136.0240121129955923607	256.0240121129955923607	166.0240121129955923607	286.0240121129955923607	226.0240121129955923607	346.0240121129955923607
1	12	0	1	76.0240121129955923607	5	1	196.0240121129955923607	4	136.0240121129955923607	4	256.0240121129955923607	8	1	9	63	76.0240121129955923607	196.0240121129955923607	136.0240121129955923607	256.0240121129955923607	166.0240121129955923607	286.0240121129955923607	226.0240121129955923607	346.0240121129955923607
1	12	0	1	76.0240121129955923607	5	1	196.0240121129955923607	4	136.0240121129955923607	4	256.0240121129955923607	8	7	1	75	76.0240121129955923607	196.0240121129955923607	136.0240121129955923607	256.0240121129955923607	166.0240121129955923607	286.0240121129955923607	226.0240121129955923607	346.0240121129955923607
1	13	0	-1	-124.9828260636382708526	9	-1	-4.9828260636382708526	4	-64.9828260636382708526	2	55.0171739363617291474	6	7	9	63	-124.9828260636382708526	-4.9828260636382708526	-64.9828260636382708526	55.0171739363617291474	-34.9828260636382708526	85.0171739363617291474	25.0171739363617291474	145.0171739363617291474
1	13	0	-1	-124.9828260636382708526	9	-1	-4.9828260636382708526	4	-64.9828260636382708526	2	55.0171739363617291474	6	7	3	65	-124.9828260636382708526	-4.9828260636382708526	-64.9828260636382708526	55.0171739363617291474	-34.9828260636382708526	85.0171739363617291474	25.0171739363617291474	145.0171739363617291474
1	13	0	-1	-124.9828260636382708526	9	-1	-4.9828260636382708526	4	-64.9828260636382708526	2	55.0171739363617291474	6	1	7	88	-124.9828260636382708526	-4.9828260636382708526	-64.9828260636382708526	55.0171739363617291474	-34.9828260636382708526	85.0171739363617291474	25.0171739363617291474	145.0171739363617291474
1	13	0	-1	-124.9828260636382708526	9	-1	-4.9828260636382708526	4	-64.9828260636382708526	2	55.0171739363617291474	6	1	1	81	-124.9828260636382708526	-4.9828260636382708526	-64.9828260636382708526	55.0171739363617291474	-34.9828260636382708526	85.0171739363617291474	25.0171739363617291474	145.0171739363617291474
1	13	0	-1	-124.9828260636382708526	9	-1	-4.9828260636382708526	4	-64.9828260636382708526	2	55.0171739363617291474	6	2	5	68	-124.9828260636382708526	-4.9828260636382708526	-64.9828260636382708526	55.0171739363617291474	-34.9828260636382708526	85.0171739363617291474	25.0171739363617291474	145.0171739363617291474
1	13	0	-1	-124.9828260636382708526	9	-1	-4.9828260636382708526	4	-64.9828260636382708526	2	55.0171739363617291474	6	4	4	41	-124.9828260636382708526	-4.9828260636382708526	-64.9828260636382708526	55.0171739363617291474	-34.9828260636382708526	85.0171739363617291474	25.0171739363617291474	145.0171739363617291474
1	13	0	-1	-124.9828260636382708526	9	-1	-4.9828260636382708526	4	-64.9828260636382708526	2	55.0171739363617291474	6	7	8	26	-124.9828260636382708526	-4.9828260636382708526	-64.9828260636382708526	55.0171739363617291474	-34.9828260636382708526	85.0171739363617291474	25.0171739363617291474	145.0171739363617291474
1	13	0	-1	-124.9828260636382708526	9	-1	-4.9828260636382708526	4	-64.9828260636382708526	2	55.0171739363617291474	6	3	6	45	-124.9828260636382708526	-4.9828260636382708526	-64.9828260636382708526	55.0171739363617291474	-34.9828260636382708526	85.0171739363617291474	25.0171739363617291474	145.0171739363617291474
1	13	0	-1	-124.9828260636382708526	9	-1	-4.9828260636382708526	4	-64.9828260636382708526	2	55.0171739363617291474	6	0	2	60	-124.9828260636382708526	-4.9828260636382708526	-64.9828260636382708526	55.0171739363617291474	-34.9828260636382708526	85.0171739363617291474	25.0171739363617291474	145.0171739363617291474
1	14	0	1	-57.4706868728321751405	6	1	62.5293131271678248595	9	2.5293131271678248595	4	122.5293131271678248595	3	1	3	57	-57.4706868728321751405	62.5293131271678248595	2.5293131271678248595	122.5293131271678248595	32.5293131271678248595	152.5293131271678248595	92.5293131271678248595	212.5293131271678248595
1	14	0	1	-57.4706868728321751405	6	1	62.5293131271678248595	9	2.5293131271678248595	4	122.5293131271678248595	3	5	1	60	-57.4706868728321751405	62.5293131271678248595	2.5293131271678248595	122.5293131271678248595	32.5293131271678248595	152.5293131271678248595	92.5293131271678248595	212.5293131271678248595
1	14	0	1	-57.4706868728321751405	6	1	62.5293131271678248595	9	2.5293131271678248595	4	122.5293131271678248595	3	1	9	65	-57.4706868728321751405	62.5293131271678248595	2.5293131271678248595	122.5293131271678248595	32.5293131271678248595	152.5293131271678248595	92.5293131271678248595	212.5293131271678248595
1	14	0	1	-57.4706868728321751405	6	1	62.5293131271678248595	9	2.5293131271678248595	4	122.5293131271678248595	3	7	7	62	-57.4706868728321751405	62.5293131271678248595	2.5293131271678248595	122.5293131271678248595	32.5293131271678248595	152.5293131271678248595	92.5293131271678248595	212.5293131271678248595
1	14	0	1	-57.4706868728321751405	6	1	62.5293131271678248595	9	2.5293131271678248595	4	122.5293131271678248595	3	6	8	58	-57.4706868728321751405	62.5293131271678248595	2.5293131271678248595	122.5293131271678248595	32.5293131271678248595	152.5293131271678248595	92.5293131271678248595	212.5293131271678248595
1	14	0	1	-57.4706868728321751405	6	1	62.5293131271678248595	9	2.5293131271678248595	4	122.5293131271678248595	3	0	5	71	-57.4706868728321751405	62.5293131271678248595	2.5293131271678248595	122.5293131271678248595	32.5293131271678248595	152.5293131271678248595	92.5293131271678248595	212.5293131271678248595
1	14	0	1	-57.4706868728321751405	6	1	62.5293131271678248595	9	2.5293131271678248595	4	122.5293131271678248595	3	5	2	32	-57.4706868728321751405	62.5293131271678248595	2.5293131271678248595	122.5293131271678248595	32.5293131271678248595	152.5293131271678248595	92.5293131271678248595	212.5293131271678248595
1	14	0	1	-57.4706868728321751405	6	1	62.5293131271678248595	9	2.5293131271678248595	4	122.5293131271678248595	3	3	6	60	-57.4706868728321751405	62.5293131271678248595	2.5293131271678248595	122.5293131271678248595	32.5293131271678248595	152.5293131271678248595	92.5293131271678248595	212.5293131271678248595
1	14	0	1	-57.4706868728321751405	6	1	62.5293131271678248595	9	2.5293131271678248595	4	122.5293131271678248595	3	3	4	51	-57.4706868728321751405	62.5293131271678248595	2.5293131271678248595	122.5293131271678248595	32.5293131271678248595	152.5293131271678248595	92.5293131271678248595	212.5293131271678248595
1	15	0	1	72.6274658768967640299	8	1	192.6274658768967640299	1	132.6274658768967640299	8	252.6274658768967640299	3	6	5	49	72.6274658768967640299	192.6274658768967640299	132.6274658768967640299	252.6274658768967640299	162.6274658768967640299	282.6274658768967356082	222.6274658768967640299	342.6274658768967356082
1	15	0	1	72.6274658768967640299	8	1	192.6274658768967640299	1	132.6274658768967640299	8	252.6274658768967640299	3	5	6	58	72.6274658768967640299	192.6274658768967640299	132.6274658768967640299	252.6274658768967640299	162.6274658768967640299	282.6274658768967356082	222.6274658768967640299	342.6274658768967356082
1	15	0	1	72.6274658768967640299	8	1	192.6274658768967640299	1	132.6274658768967640299	8	252.6274658768967640299	3	5	9	51	72.6274658768967640299	192.6274658768967640299	132.6274658768967640299	252.6274658768967640299	162.6274658768967640299	282.6274658768967356082	222.6274658768967640299	342.6274658768967356082
1	15	0	1	72.6274658768967640299	8	1	192.6274658768967640299	1	132.6274658768967640299	8	252.6274658768967640299	3	0	1	55	72.6274658768967640299	192.6274658768967640299	132.6274658768967640299	252.6274658768967640299	162.6274658768967640299	282.6274658768967356082	222.6274658768967640299	342.6274658768967356082
1	15	0	1	72.6274658768967640299	8	1	192.6274658768967640299	1	132.6274658768967640299	8	252.6274658768967640299	3	5	2	65	72.6274658768967640299	192.6274658768967640299	132.6274658768967640299	252.6274658768967640299	162.6274658768967640299	282.6274658768967356082	222.6274658768967640299	342.6274658768967356082
1	15	0	1	72.6274658768967640299	8	1	192.6274658768967640299	1	132.6274658768967640299	8	252.6274658768967640299	3	3	3	60	72.6274658768967640299	192.6274658768967640299	132.6274658768967640299	252.6274658768967640299	162.6274658768967640299	282.6274658768967356082	222.6274658768967640299	342.6274658768967356082
1	15	0	1	72.6274658768967640299	8	1	192.6274658768967640299	1	132.6274658768967640299	8	252.6274658768967640299	3	5	4	44	72.6274658768967640299	192.6274658768967640299	132.6274658768967640299	252.6274658768967640299	162.6274658768967640299	282.6274658768967356082	222.6274658768967640299	342.6274658768967356082
1	15	0	1	72.6274658768967640299	8	1	192.6274658768967640299	1	132.6274658768967640299	8	252.6274658768967640299	3	6	7	46	72.6274658768967640299	192.6274658768967640299	132.6274658768967640299	252.6274658768967640299	162.6274658768967640299	282.6274658768967356082	222.6274658768967640299	342.6274658768967356082
1	15	0	1	72.6274658768967640299	8	1	192.6274658768967640299	1	132.6274658768967640299	8	252.6274658768967640299	3	6	8	45	72.6274658768967640299	192.6274658768967640299	132.6274658768967640299	252.6274658768967640299	162.6274658768967640299	282.6274658768967356082	222.6274658768967640299	342.6274658768967356082
1	16	0	-1	25.1242356293658133382	5	-1	145.1242356293658133382	7	85.1242356293658133382	5	205.1242356293658133382	5	1	3	60	25.1242356293658133382	145.1242356293658133382	85.1242356293658133382	205.1242356293658133382	115.1242356293658133382	235.1242356293658133382	175.1242356293658133382	295.1242356293657849164
1	16	0	-1	25.1242356293658133382	5	-1	145.1242356293658133382	7	85.1242356293658133382	5	205.1242356293658133382	5	6	6	65	25.1242356293658133382	145.1242356293658133382	85.1242356293658133382	205.1242356293658133382	115.1242356293658133382	235.1242356293658133382	175.1242356293658133382	295.1242356293657849164
1	16	0	-1	25.1242356293658133382	5	-1	145.1242356293658133382	7	85.1242356293658133382	5	205.1242356293658133382	5	3	9	74	25.1242356293658133382	145.1242356293658133382	85.1242356293658133382	205.1242356293658133382	115.1242356293658133382	235.1242356293658133382	175.1242356293658133382	295.1242356293657849164
1	16	0	-1	25.1242356293658133382	5	-1	145.1242356293658133382	7	85.1242356293658133382	5	205.1242356293658133382	5	0	4	72	25.1242356293658133382	145.1242356293658133382	85.1242356293658133382	205.1242356293658133382	115.1242356293658133382	235.1242356293658133382	175.1242356293658133382	295.1242356293657849164
1	16	0	-1	25.1242356293658133382	5	-1	145.1242356293658133382	7	85.1242356293658133382	5	205.1242356293658133382	5	0	2	53	25.1242356293658133382	145.1242356293658133382	85.1242356293658133382	205.1242356293658133382	115.1242356293658133382	235.1242356293658133382	175.1242356293658133382	295.1242356293657849164
1	16	0	-1	25.1242356293658133382	5	-1	145.1242356293658133382	7	85.1242356293658133382	5	205.1242356293658133382	5	4	1	69	25.1242356293658133382	145.1242356293658133382	85.1242356293658133382	205.1242356293658133382	115.1242356293658133382	235.1242356293658133382	175.1242356293658133382	295.1242356293657849164
1	16	0	-1	25.1242356293658133382	5	-1	145.1242356293658133382	7	85.1242356293658133382	5	205.1242356293658133382	5	2	7	66	25.1242356293658133382	145.1242356293658133382	85.1242356293658133382	205.1242356293658133382	115.1242356293658133382	235.1242356293658133382	175.1242356293658133382	295.1242356293657849164
1	16	0	-1	25.1242356293658133382	5	-1	145.1242356293658133382	7	85.1242356293658133382	5	205.1242356293658133382	5	0	8	77	25.1242356293658133382	145.1242356293658133382	85.1242356293658133382	205.1242356293658133382	115.1242356293658133382	235.1242356293658133382	175.1242356293658133382	295.1242356293657849164
1	16	0	-1	25.1242356293658133382	5	-1	145.1242356293658133382	7	85.1242356293658133382	5	205.1242356293658133382	5	5	5	69	25.1242356293658133382	145.1242356293658133382	85.1242356293658133382	205.1242356293658133382	115.1242356293658133382	235.1242356293658133382	175.1242356293658133382	295.1242356293657849164
1	17	0	-1	-5.8993749380808822025	8	-1	114.1006250619191177975	2	54.1006250619191177975	2	174.1006250619191177975	3	6	3	50	-5.8993749380808822025	114.1006250619191177975	54.1006250619191177975	174.1006250619191177975	84.1006250619191177975	204.1006250619191177975	144.1006250619191177975	264.1006250619191177975
1	17	0	-1	-5.8993749380808822025	8	-1	114.1006250619191177975	2	54.1006250619191177975	2	174.1006250619191177975	3	2	5	54	-5.8993749380808822025	114.1006250619191177975	54.1006250619191177975	174.1006250619191177975	84.1006250619191177975	204.1006250619191177975	144.1006250619191177975	264.1006250619191177975
1	17	0	-1	-5.8993749380808822025	8	-1	114.1006250619191177975	2	54.1006250619191177975	2	174.1006250619191177975	3	6	1	50	-5.8993749380808822025	114.1006250619191177975	54.1006250619191177975	174.1006250619191177975	84.1006250619191177975	204.1006250619191177975	144.1006250619191177975	264.1006250619191177975
1	17	0	-1	-5.8993749380808822025	8	-1	114.1006250619191177975	2	54.1006250619191177975	2	174.1006250619191177975	3	6	6	67	-5.8993749380808822025	114.1006250619191177975	54.1006250619191177975	174.1006250619191177975	84.1006250619191177975	204.1006250619191177975	144.1006250619191177975	264.1006250619191177975
1	17	0	-1	-5.8993749380808822025	8	-1	114.1006250619191177975	2	54.1006250619191177975	2	174.1006250619191177975	3	6	9	59	-5.8993749380808822025	114.1006250619191177975	54.1006250619191177975	174.1006250619191177975	84.1006250619191177975	204.1006250619191177975	144.1006250619191177975	264.1006250619191177975
1	17	0	-1	-5.8993749380808822025	8	-1	114.1006250619191177975	2	54.1006250619191177975	2	174.1006250619191177975	3	1	8	102	-5.8993749380808822025	114.1006250619191177975	54.1006250619191177975	174.1006250619191177975	84.1006250619191177975	204.1006250619191177975	144.1006250619191177975	264.1006250619191177975
1	17	0	-1	-5.8993749380808822025	8	-1	114.1006250619191177975	2	54.1006250619191177975	2	174.1006250619191177975	3	6	7	58	-5.8993749380808822025	114.1006250619191177975	54.1006250619191177975	174.1006250619191177975	84.1006250619191177975	204.1006250619191177975	144.1006250619191177975	264.1006250619191177975
1	17	0	-1	-5.8993749380808822025	8	-1	114.1006250619191177975	2	54.1006250619191177975	2	174.1006250619191177975	3	7	4	56	-5.8993749380808822025	114.1006250619191177975	54.1006250619191177975	174.1006250619191177975	84.1006250619191177975	204.1006250619191177975	144.1006250619191177975	264.1006250619191177975
1	17	0	-1	-5.8993749380808822025	8	-1	114.1006250619191177975	2	54.1006250619191177975	2	174.1006250619191177975	3	7	2	75	-5.8993749380808822025	114.1006250619191177975	54.1006250619191177975	174.1006250619191177975	84.1006250619191177975	204.1006250619191177975	144.1006250619191177975	264.1006250619191177975
1	18	0	-1	129.5894477957834851622	2	-1	249.5894477957834851622	5	189.5894477957834851622	1	309.5894477957834851622	7	7	9	66	129.5894477957834851622	249.5894477957834851622	189.5894477957834851622	309.5894477957834851622	219.5894477957834851622	339.5894477957834851622	279.5894477957834851622	399.5894477957834851622
1	18	0	-1	129.5894477957834851622	2	-1	249.5894477957834851622	5	189.5894477957834851622	1	309.5894477957834851622	7	4	6	97	129.5894477957834851622	249.5894477957834851622	189.5894477957834851622	309.5894477957834851622	219.5894477957834851622	339.5894477957834851622	279.5894477957834851622	399.5894477957834851622
1	18	0	-1	129.5894477957834851622	2	-1	249.5894477957834851622	5	189.5894477957834851622	1	309.5894477957834851622	7	2	1	73	129.5894477957834851622	249.5894477957834851622	189.5894477957834851622	309.5894477957834851622	219.5894477957834851622	339.5894477957834851622	279.5894477957834851622	399.5894477957834851622
1	18	0	-1	129.5894477957834851622	2	-1	249.5894477957834851622	5	189.5894477957834851622	1	309.5894477957834851622	7	1	8	67	129.5894477957834851622	249.5894477957834851622	189.5894477957834851622	309.5894477957834851622	219.5894477957834851622	339.5894477957834851622	279.5894477957834851622	399.5894477957834851622
1	18	0	-1	129.5894477957834851622	2	-1	249.5894477957834851622	5	189.5894477957834851622	1	309.5894477957834851622	7	4	7	55	129.5894477957834851622	249.5894477957834851622	189.5894477957834851622	309.5894477957834851622	219.5894477957834851622	339.5894477957834851622	279.5894477957834851622	399.5894477957834851622
1	18	0	-1	129.5894477957834851622	2	-1	249.5894477957834851622	5	189.5894477957834851622	1	309.5894477957834851622	7	0	4	79	129.5894477957834851622	249.5894477957834851622	189.5894477957834851622	309.5894477957834851622	219.5894477957834851622	339.5894477957834851622	279.5894477957834851622	399.5894477957834851622
1	18	0	-1	129.5894477957834851622	2	-1	249.5894477957834851622	5	189.5894477957834851622	1	309.5894477957834851622	7	7	3	77	129.5894477957834851622	249.5894477957834851622	189.5894477957834851622	309.5894477957834851622	219.5894477957834851622	339.5894477957834851622	279.5894477957834851622	399.5894477957834851622
1	18	0	-1	129.5894477957834851622	2	-1	249.5894477957834851622	5	189.5894477957834851622	1	309.5894477957834851622	7	3	2	55	129.5894477957834851622	249.5894477957834851622	189.5894477957834851622	309.5894477957834851622	219.5894477957834851622	339.5894477957834851622	279.5894477957834851622	399.5894477957834851622
1	18	0	-1	129.5894477957834851622	2	-1	249.5894477957834851622	5	189.5894477957834851622	1	309.5894477957834851622	7	2	5	73	129.5894477957834851622	249.5894477957834851622	189.5894477957834851622	309.5894477957834851622	219.5894477957834851622	339.5894477957834851622	279.5894477957834851622	399.5894477957834851622
