subject	trial_number	Cross_position	Circle_1	Position_1	Color_1	Circle_2	Position_2	Color_2	Position_3	Color_3	Position_4	Color_4	p_confidence	response_color	response_time	angle_1	angle_2	angle_3	angle_4	angle_1_cue	angle_2_cue	angle_3_cue	angle_4_cue
1	0	0	0	0	0	0	0	0	0	0	0	0	0	-1	0	0	0	0	0	0	0	0	0
1	0	0	0	0	0	0	0	0	0	0	0	0	0	-1	0	0	0	0	0	0	0	0	0
1	0	0	0	0	0	0	0	0	0	0	0	0	0	-1	0	0	0	0	0	0	0	0	0
1	0	0	0	0	0	0	0	0	0	0	0	0	0	-1	0	0	0	0	0	0	0	0	0
1	0	0	0	0	0	0	0	0	0	0	0	0	0	-1	0	0	0	0	0	0	0	0	0
1	0	0	0	0	0	0	0	0	0	0	0	0	0	-1	0	0	0	0	0	0	0	0	0
1	0	0	0	0	0	0	0	0	0	0	0	0	0	-1	0	0	0	0	0	0	0	0	0
1	0	0	0	0	0	0	0	0	0	0	0	0	7	3	60	-162.0850603706401500403	-42.0850603706401500403	-102.0850603706401500403	17.9149396293598499597	-72.0850603706401500403	47.9149396293598499597	-12.0850603706401500403	107.9149396293598499597
1	1	0	-1	-155.1434608584138175047	6	-1	-35.1434608584138175047	4	-95.1434608584138175047	4	24.8565391415861824953	6	3	1	51	-155.1434608584138175047	-35.1434608584138175047	-95.1434608584138175047	24.8565391415861824953	-65.1434608584138175047	54.8565391415861824953	-5.1434608584138175047	114.8565391415861824953
1	1	0	-1	-155.1434608584138175047	6	-1	-35.1434608584138175047	4	-95.1434608584138175047	4	24.8565391415861824953	6	4	3	60	-155.1434608584138175047	-35.1434608584138175047	-95.1434608584138175047	24.8565391415861824953	-65.1434608584138175047	54.8565391415861824953	-5.1434608584138175047	114.8565391415861824953
1	1	0	-1	-155.1434608584138175047	6	-1	-35.1434608584138175047	4	-95.1434608584138175047	4	24.8565391415861824953	6	1	8	41	-155.1434608584138175047	-35.1434608584138175047	-95.1434608584138175047	24.8565391415861824953	-65.1434608584138175047	54.8565391415861824953	-5.1434608584138175047	114.8565391415861824953
1	1	0	-1	-155.1434608584138175047	6	-1	-35.1434608584138175047	4	-95.1434608584138175047	4	24.8565391415861824953	6	0	6	60	-155.1434608584138175047	-35.1434608584138175047	-95.1434608584138175047	24.8565391415861824953	-65.1434608584138175047	54.8565391415861824953	-5.1434608584138175047	114.8565391415861824953
1	1	0	-1	-155.1434608584138175047	6	-1	-35.1434608584138175047	4	-95.1434608584138175047	4	24.8565391415861824953	6	4	9	50	-155.1434608584138175047	-35.1434608584138175047	-95.1434608584138175047	24.8565391415861824953	-65.1434608584138175047	54.8565391415861824953	-5.1434608584138175047	114.8565391415861824953
1	1	0	-1	-155.1434608584138175047	6	-1	-35.1434608584138175047	4	-95.1434608584138175047	4	24.8565391415861824953	6	1	4	58	-155.1434608584138175047	-35.1434608584138175047	-95.1434608584138175047	24.8565391415861824953	-65.1434608584138175047	54.8565391415861824953	-5.1434608584138175047	114.8565391415861824953
1	1	0	-1	-155.1434608584138175047	6	-1	-35.1434608584138175047	4	-95.1434608584138175047	4	24.8565391415861824953	6	0	2	51	-155.1434608584138175047	-35.1434608584138175047	-95.1434608584138175047	24.8565391415861824953	-65.1434608584138175047	54.8565391415861824953	-5.1434608584138175047	114.8565391415861824953
1	1	0	-1	-155.1434608584138175047	6	-1	-35.1434608584138175047	4	-95.1434608584138175047	4	24.8565391415861824953	6	1	7	64	-155.1434608584138175047	-35.1434608584138175047	-95.1434608584138175047	24.8565391415861824953	-65.1434608584138175047	54.8565391415861824953	-5.1434608584138175047	114.8565391415861824953
1	1	0	-1	-155.1434608584138175047	6	-1	-35.1434608584138175047	4	-95.1434608584138175047	4	24.8565391415861824953	6	0	5	66	-155.1434608584138175047	-35.1434608584138175047	-95.1434608584138175047	24.8565391415861824953	-65.1434608584138175047	54.8565391415861824953	-5.1434608584138175047	114.8565391415861824953
1	2	0	-1	-176.3734663269420650522	6	-1	-56.3734663269420650522	1	-116.3734663269420650522	1	3.6265336730579349478	8	4	4	58	-176.3734663269420650522	-56.3734663269420650522	-116.3734663269420650522	3.6265336730579349478	-86.3734663269420650522	33.6265336730579349478	-26.3734663269420650522	93.6265336730579349478
1	2	0	-1	-176.3734663269420650522	6	-1	-56.3734663269420650522	1	-116.3734663269420650522	1	3.6265336730579349478	8	0	7	61	-176.3734663269420650522	-56.3734663269420650522	-116.3734663269420650522	3.6265336730579349478	-86.3734663269420650522	33.6265336730579349478	-26.3734663269420650522	93.6265336730579349478
1	2	0	-1	-176.3734663269420650522	6	-1	-56.3734663269420650522	1	-116.3734663269420650522	1	3.6265336730579349478	8	6	9	55	-176.3734663269420650522	-56.3734663269420650522	-116.3734663269420650522	3.6265336730579349478	-86.3734663269420650522	33.6265336730579349478	-26.3734663269420650522	93.6265336730579349478
1	2	0	-1	-176.3734663269420650522	6	-1	-56.3734663269420650522	1	-116.3734663269420650522	1	3.6265336730579349478	8	7	3	55	-176.3734663269420650522	-56.3734663269420650522	-116.3734663269420650522	3.6265336730579349478	-86.3734663269420650522	33.6265336730579349478	-26.3734663269420650522	93.6265336730579349478
1	2	0	-1	-176.3734663269420650522	6	-1	-56.3734663269420650522	1	-116.3734663269420650522	1	3.6265336730579349478	8	4	6	54	-176.3734663269420650522	-56.3734663269420650522	-116.3734663269420650522	3.6265336730579349478	-86.3734663269420650522	33.6265336730579349478	-26.3734663269420650522	93.6265336730579349478
1	2	0	-1	-176.3734663269420650522	6	-1	-56.3734663269420650522	1	-116.3734663269420650522	1	3.6265336730579349478	8	5	5	48	-176.3734663269420650522	-56.3734663269420650522	-116.3734663269420650522	3.6265336730579349478	-86.3734663269420650522	33.6265336730579349478	-26.3734663269420650522	93.6265336730579349478
1	2	0	-1	-176.3734663269420650522	6	-1	-56.3734663269420650522	1	-116.3734663269420650522	1	3.6265336730579349478	8	7	8	51	-176.3734663269420650522	-56.3734663269420650522	-116.3734663269420650522	3.6265336730579349478	-86.3734663269420650522	33.6265336730579349478	-26.3734663269420650522	93.6265336730579349478
1	2	0	-1	-176.3734663269420650522	6	-1	-56.3734663269420650522	1	-116.3734663269420650522	1	3.6265336730579349478	8	5	2	65	-176.3734663269420650522	-56.3734663269420650522	-116.3734663269420650522	3.6265336730579349478	-86.3734663269420650522	33.6265336730579349478	-26.3734663269420650522	93.6265336730579349478
1	2	0	-1	-176.3734663269420650522	6	-1	-56.3734663269420650522	1	-116.3734663269420650522	1	3.6265336730579349478	8	2	1	64	-176.3734663269420650522	-56.3734663269420650522	-116.3734663269420650522	3.6265336730579349478	-86.3734663269420650522	33.6265336730579349478	-26.3734663269420650522	93.6265336730579349478
1	3	0	-1	152.6869882300233030037	7	-1	272.6869882300233030037	6	212.6869882300233030037	4	332.6869882300233030037	4	6	6	56	152.6869882300233030037	272.6869882300233030037	212.6869882300233030037	332.6869882300233030037	242.6869882300233030037	362.6869882300233030037	302.6869882300233030037	422.6869882300233030037
1	3	0	-1	152.6869882300233030037	7	-1	272.6869882300233030037	6	212.6869882300233030037	4	332.6869882300233030037	4	7	3	64	152.6869882300233030037	272.6869882300233030037	212.6869882300233030037	332.6869882300233030037	242.6869882300233030037	362.6869882300233030037	302.6869882300233030037	422.6869882300233030037
1	3	0	-1	152.6869882300233030037	7	-1	272.6869882300233030037	6	212.6869882300233030037	4	332.6869882300233030037	4	3	7	53	152.6869882300233030037	272.6869882300233030037	212.6869882300233030037	332.6869882300233030037	242.6869882300233030037	362.6869882300233030037	302.6869882300233030037	422.6869882300233030037
1	3	0	-1	152.6869882300233030037	7	-1	272.6869882300233030037	6	212.6869882300233030037	4	332.6869882300233030037	4	6	4	55	152.6869882300233030037	272.6869882300233030037	212.6869882300233030037	332.6869882300233030037	242.6869882300233030037	362.6869882300233030037	302.6869882300233030037	422.6869882300233030037
1	3	0	-1	152.6869882300233030037	7	-1	272.6869882300233030037	6	212.6869882300233030037	4	332.6869882300233030037	4	3	1	54	152.6869882300233030037	272.6869882300233030037	212.6869882300233030037	332.6869882300233030037	242.6869882300233030037	362.6869882300233030037	302.6869882300233030037	422.6869882300233030037
1	3	0	-1	152.6869882300233030037	7	-1	272.6869882300233030037	6	212.6869882300233030037	4	332.6869882300233030037	4	7	9	55	152.6869882300233030037	272.6869882300233030037	212.6869882300233030037	332.6869882300233030037	242.6869882300233030037	362.6869882300233030037	302.6869882300233030037	422.6869882300233030037
1	3	0	-1	152.6869882300233030037	7	-1	272.6869882300233030037	6	212.6869882300233030037	4	332.6869882300233030037	4	7	8	66	152.6869882300233030037	272.6869882300233030037	212.6869882300233030037	332.6869882300233030037	242.6869882300233030037	362.6869882300233030037	302.6869882300233030037	422.6869882300233030037
1	3	0	-1	152.6869882300233030037	7	-1	272.6869882300233030037	6	212.6869882300233030037	4	332.6869882300233030037	4	5	2	56	152.6869882300233030037	272.6869882300233030037	212.6869882300233030037	332.6869882300233030037	242.6869882300233030037	362.6869882300233030037	302.6869882300233030037	422.6869882300233030037
1	3	0	-1	152.6869882300233030037	7	-1	272.6869882300233030037	6	212.6869882300233030037	4	332.6869882300233030037	4	0	5	65	152.6869882300233030037	272.6869882300233030037	212.6869882300233030037	332.6869882300233030037	242.6869882300233030037	362.6869882300233030037	302.6869882300233030037	422.6869882300233030037
1	4	0	-1	94.6889184216710191322	3	-1	214.6889184216710191322	1	154.6889184216710191322	5	274.6889184216710191322	5	0	6	62	94.6889184216710191322	214.6889184216710191322	154.6889184216710191322	274.6889184216710191322	184.6889184216710191322	304.6889184216710191322	244.6889184216710191322	364.6889184216710191322
1	4	0	-1	94.6889184216710191322	3	-1	214.6889184216710191322	1	154.6889184216710191322	5	274.6889184216710191322	5	7	4	60	94.6889184216710191322	214.6889184216710191322	154.6889184216710191322	274.6889184216710191322	184.6889184216710191322	304.6889184216710191322	244.6889184216710191322	364.6889184216710191322
1	4	0	-1	94.6889184216710191322	3	-1	214.6889184216710191322	1	154.6889184216710191322	5	274.6889184216710191322	5	0	5	75	94.6889184216710191322	214.6889184216710191322	154.6889184216710191322	274.6889184216710191322	184.6889184216710191322	304.6889184216710191322	244.6889184216710191322	364.6889184216710191322
1	4	0	-1	94.6889184216710191322	3	-1	214.6889184216710191322	1	154.6889184216710191322	5	274.6889184216710191322	5	3	9	34	94.6889184216710191322	214.6889184216710191322	154.6889184216710191322	274.6889184216710191322	184.6889184216710191322	304.6889184216710191322	244.6889184216710191322	364.6889184216710191322
1	4	0	-1	94.6889184216710191322	3	-1	214.6889184216710191322	1	154.6889184216710191322	5	274.6889184216710191322	5	7	3	38	94.6889184216710191322	214.6889184216710191322	154.6889184216710191322	274.6889184216710191322	184.6889184216710191322	304.6889184216710191322	244.6889184216710191322	364.6889184216710191322
1	4	0	-1	94.6889184216710191322	3	-1	214.6889184216710191322	1	154.6889184216710191322	5	274.6889184216710191322	5	1	7	61	94.6889184216710191322	214.6889184216710191322	154.6889184216710191322	274.6889184216710191322	184.6889184216710191322	304.6889184216710191322	244.6889184216710191322	364.6889184216710191322
1	4	0	-1	94.6889184216710191322	3	-1	214.6889184216710191322	1	154.6889184216710191322	5	274.6889184216710191322	5	7	2	48	94.6889184216710191322	214.6889184216710191322	154.6889184216710191322	274.6889184216710191322	184.6889184216710191322	304.6889184216710191322	244.6889184216710191322	364.6889184216710191322
1	4	0	-1	94.6889184216710191322	3	-1	214.6889184216710191322	1	154.6889184216710191322	5	274.6889184216710191322	5	4	1	29	94.6889184216710191322	214.6889184216710191322	154.6889184216710191322	274.6889184216710191322	184.6889184216710191322	304.6889184216710191322	244.6889184216710191322	364.6889184216710191322
1	4	0	-1	94.6889184216710191322	3	-1	214.6889184216710191322	1	154.6889184216710191322	5	274.6889184216710191322	5	2	8	48	94.6889184216710191322	214.6889184216710191322	154.6889184216710191322	274.6889184216710191322	184.6889184216710191322	304.6889184216710191322	244.6889184216710191322	364.6889184216710191322
1	5	0	-1	-111.8086120793150257668	4	-1	8.1913879206849742332	2	-51.8086120793150257668	8	68.1913879206849742332	2	2	9	38	-111.8086120793150257668	8.1913879206849742332	-51.8086120793150257668	68.1913879206849742332	-21.8086120793150257668	98.1913879206849742332	38.1913879206849742332	158.1913879206849742332
1	5	0	-1	-111.8086120793150257668	4	-1	8.1913879206849742332	2	-51.8086120793150257668	8	68.1913879206849742332	2	3	2	69	-111.8086120793150257668	8.1913879206849742332	-51.8086120793150257668	68.1913879206849742332	-21.8086120793150257668	98.1913879206849742332	38.1913879206849742332	158.1913879206849742332
1	5	0	-1	-111.8086120793150257668	4	-1	8.1913879206849742332	2	-51.8086120793150257668	8	68.1913879206849742332	2	1	8	53	-111.8086120793150257668	8.1913879206849742332	-51.8086120793150257668	68.1913879206849742332	-21.8086120793150257668	98.1913879206849742332	38.1913879206849742332	158.1913879206849742332
1	5	0	-1	-111.8086120793150257668	4	-1	8.1913879206849742332	2	-51.8086120793150257668	8	68.1913879206849742332	2	0	4	49	-111.8086120793150257668	8.1913879206849742332	-51.8086120793150257668	68.1913879206849742332	-21.8086120793150257668	98.1913879206849742332	38.1913879206849742332	158.1913879206849742332
1	5	0	-1	-111.8086120793150257668	4	-1	8.1913879206849742332	2	-51.8086120793150257668	8	68.1913879206849742332	2	2	7	43	-111.8086120793150257668	8.1913879206849742332	-51.8086120793150257668	68.1913879206849742332	-21.8086120793150257668	98.1913879206849742332	38.1913879206849742332	158.1913879206849742332
1	5	0	-1	-111.8086120793150257668	4	-1	8.1913879206849742332	2	-51.8086120793150257668	8	68.1913879206849742332	2	5	1	54	-111.8086120793150257668	8.1913879206849742332	-51.8086120793150257668	68.1913879206849742332	-21.8086120793150257668	98.1913879206849742332	38.1913879206849742332	158.1913879206849742332
1	5	0	-1	-111.8086120793150257668	4	-1	8.1913879206849742332	2	-51.8086120793150257668	8	68.1913879206849742332	2	7	6	53	-111.8086120793150257668	8.1913879206849742332	-51.8086120793150257668	68.1913879206849742332	-21.8086120793150257668	98.1913879206849742332	38.1913879206849742332	158.1913879206849742332
1	5	0	-1	-111.8086120793150257668	4	-1	8.1913879206849742332	2	-51.8086120793150257668	8	68.1913879206849742332	2	3	3	50	-111.8086120793150257668	8.1913879206849742332	-51.8086120793150257668	68.1913879206849742332	-21.8086120793150257668	98.1913879206849742332	38.1913879206849742332	158.1913879206849742332
1	5	0	-1	-111.8086120793150257668	4	-1	8.1913879206849742332	2	-51.8086120793150257668	8	68.1913879206849742332	2	0	5	44	-111.8086120793150257668	8.1913879206849742332	-51.8086120793150257668	68.1913879206849742332	-21.8086120793150257668	98.1913879206849742332	38.1913879206849742332	158.1913879206849742332
1	6	0	-1	79.0689413666419795845	2	-1	199.0689413666419795845	7	139.0689413666419795845	2	259.0689413666419795845	7	7	3	68	79.0689413666419795845	199.0689413666419795845	139.0689413666419795845	259.0689413666419795845	169.0689413666419795845	289.0689413666419795845	229.0689413666419795845	349.0689413666419795845
1	6	0	-1	79.0689413666419795845	2	-1	199.0689413666419795845	7	139.0689413666419795845	2	259.0689413666419795845	7	3	4	60	79.0689413666419795845	199.0689413666419795845	139.0689413666419795845	259.0689413666419795845	169.0689413666419795845	289.0689413666419795845	229.0689413666419795845	349.0689413666419795845
1	6	0	-1	79.0689413666419795845	2	-1	199.0689413666419795845	7	139.0689413666419795845	2	259.0689413666419795845	7	7	7	57	79.0689413666419795845	199.0689413666419795845	139.0689413666419795845	259.0689413666419795845	169.0689413666419795845	289.0689413666419795845	229.0689413666419795845	349.0689413666419795845
1	6	0	-1	79.0689413666419795845	2	-1	199.0689413666419795845	7	139.0689413666419795845	2	259.0689413666419795845	7	3	5	40	79.0689413666419795845	199.0689413666419795845	139.0689413666419795845	259.0689413666419795845	169.0689413666419795845	289.0689413666419795845	229.0689413666419795845	349.0689413666419795845
1	6	0	-1	79.0689413666419795845	2	-1	199.0689413666419795845	7	139.0689413666419795845	2	259.0689413666419795845	7	2	1	50	79.0689413666419795845	199.0689413666419795845	139.0689413666419795845	259.0689413666419795845	169.0689413666419795845	289.0689413666419795845	229.0689413666419795845	349.0689413666419795845
1	6	0	-1	79.0689413666419795845	2	-1	199.0689413666419795845	7	139.0689413666419795845	2	259.0689413666419795845	7	1	9	64	79.0689413666419795845	199.0689413666419795845	139.0689413666419795845	259.0689413666419795845	169.0689413666419795845	289.0689413666419795845	229.0689413666419795845	349.0689413666419795845
1	6	0	-1	79.0689413666419795845	2	-1	199.0689413666419795845	7	139.0689413666419795845	2	259.0689413666419795845	7	5	6	48	79.0689413666419795845	199.0689413666419795845	139.0689413666419795845	259.0689413666419795845	169.0689413666419795845	289.0689413666419795845	229.0689413666419795845	349.0689413666419795845
1	6	0	-1	79.0689413666419795845	2	-1	199.0689413666419795845	7	139.0689413666419795845	2	259.0689413666419795845	7	4	2	40	79.0689413666419795845	199.0689413666419795845	139.0689413666419795845	259.0689413666419795845	169.0689413666419795845	289.0689413666419795845	229.0689413666419795845	349.0689413666419795845
1	6	0	-1	79.0689413666419795845	2	-1	199.0689413666419795845	7	139.0689413666419795845	2	259.0689413666419795845	7	0	8	36	79.0689413666419795845	199.0689413666419795845	139.0689413666419795845	259.0689413666419795845	169.0689413666419795845	289.0689413666419795845	229.0689413666419795845	349.0689413666419795845
1	7	0	-1	-141.2510281617871896742	8	-1	-21.2510281617871896742	5	-81.2510281617871896742	5	38.7489718382128103258	5	6	1	59	-141.2510281617871896742	-21.2510281617871896742	-81.2510281617871896742	38.7489718382128103258	-51.2510281617871896742	68.7489718382128103258	8.7489718382128103258	128.7489718382128103258
1	7	0	-1	-141.2510281617871896742	8	-1	-21.2510281617871896742	5	-81.2510281617871896742	5	38.7489718382128103258	5	4	8	33	-141.2510281617871896742	-21.2510281617871896742	-81.2510281617871896742	38.7489718382128103258	-51.2510281617871896742	68.7489718382128103258	8.7489718382128103258	128.7489718382128103258
1	7	0	-1	-141.2510281617871896742	8	-1	-21.2510281617871896742	5	-81.2510281617871896742	5	38.7489718382128103258	5	2	4	52	-141.2510281617871896742	-21.2510281617871896742	-81.2510281617871896742	38.7489718382128103258	-51.2510281617871896742	68.7489718382128103258	8.7489718382128103258	128.7489718382128103258
1	7	0	-1	-141.2510281617871896742	8	-1	-21.2510281617871896742	5	-81.2510281617871896742	5	38.7489718382128103258	5	7	9	64	-141.2510281617871896742	-21.2510281617871896742	-81.2510281617871896742	38.7489718382128103258	-51.2510281617871896742	68.7489718382128103258	8.7489718382128103258	128.7489718382128103258
1	7	0	-1	-141.2510281617871896742	8	-1	-21.2510281617871896742	5	-81.2510281617871896742	5	38.7489718382128103258	5	0	2	72	-141.2510281617871896742	-21.2510281617871896742	-81.2510281617871896742	38.7489718382128103258	-51.2510281617871896742	68.7489718382128103258	8.7489718382128103258	128.7489718382128103258
1	7	0	-1	-141.2510281617871896742	8	-1	-21.2510281617871896742	5	-81.2510281617871896742	5	38.7489718382128103258	5	6	3	36	-141.2510281617871896742	-21.2510281617871896742	-81.2510281617871896742	38.7489718382128103258	-51.2510281617871896742	68.7489718382128103258	8.7489718382128103258	128.7489718382128103258
1	7	0	-1	-141.2510281617871896742	8	-1	-21.2510281617871896742	5	-81.2510281617871896742	5	38.7489718382128103258	5	6	5	48	-141.2510281617871896742	-21.2510281617871896742	-81.2510281617871896742	38.7489718382128103258	-51.2510281617871896742	68.7489718382128103258	8.7489718382128103258	128.7489718382128103258
1	7	0	-1	-141.2510281617871896742	8	-1	-21.2510281617871896742	5	-81.2510281617871896742	5	38.7489718382128103258	5	6	7	83	-141.2510281617871896742	-21.2510281617871896742	-81.2510281617871896742	38.7489718382128103258	-51.2510281617871896742	68.7489718382128103258	8.7489718382128103258	128.7489718382128103258
1	7	0	-1	-141.2510281617871896742	8	-1	-21.2510281617871896742	5	-81.2510281617871896742	5	38.7489718382128103258	5	7	6	49	-141.2510281617871896742	-21.2510281617871896742	-81.2510281617871896742	38.7489718382128103258	-51.2510281617871896742	68.7489718382128103258	8.7489718382128103258	128.7489718382128103258
1	8	0	-1	-163.5067902373864399124	1	-1	-43.5067902373864399124	5	-103.5067902373864399124	4	16.4932097626135600876	9	3	6	44	-163.5067902373864399124	-43.5067902373864399124	-103.5067902373864399124	16.4932097626135600876	-73.5067902373864399124	46.4932097626135600876	-13.5067902373864399124	106.4932097626135600876
1	8	0	-1	-163.5067902373864399124	1	-1	-43.5067902373864399124	5	-103.5067902373864399124	4	16.4932097626135600876	9	7	5	46	-163.5067902373864399124	-43.5067902373864399124	-103.5067902373864399124	16.4932097626135600876	-73.5067902373864399124	46.4932097626135600876	-13.5067902373864399124	106.4932097626135600876
1	8	0	-1	-163.5067902373864399124	1	-1	-43.5067902373864399124	5	-103.5067902373864399124	4	16.4932097626135600876	9	1	3	27	-163.5067902373864399124	-43.5067902373864399124	-103.5067902373864399124	16.4932097626135600876	-73.5067902373864399124	46.4932097626135600876	-13.5067902373864399124	106.4932097626135600876
1	8	0	-1	-163.5067902373864399124	1	-1	-43.5067902373864399124	5	-103.5067902373864399124	4	16.4932097626135600876	9	0	2	43	-163.5067902373864399124	-43.5067902373864399124	-103.5067902373864399124	16.4932097626135600876	-73.5067902373864399124	46.4932097626135600876	-13.5067902373864399124	106.4932097626135600876
1	8	0	-1	-163.5067902373864399124	1	-1	-43.5067902373864399124	5	-103.5067902373864399124	4	16.4932097626135600876	9	7	4	59	-163.5067902373864399124	-43.5067902373864399124	-103.5067902373864399124	16.4932097626135600876	-73.5067902373864399124	46.4932097626135600876	-13.5067902373864399124	106.4932097626135600876
1	8	0	-1	-163.5067902373864399124	1	-1	-43.5067902373864399124	5	-103.5067902373864399124	4	16.4932097626135600876	9	6	1	37	-163.5067902373864399124	-43.5067902373864399124	-103.5067902373864399124	16.4932097626135600876	-73.5067902373864399124	46.4932097626135600876	-13.5067902373864399124	106.4932097626135600876
1	8	0	-1	-163.5067902373864399124	1	-1	-43.5067902373864399124	5	-103.5067902373864399124	4	16.4932097626135600876	9	4	7	41	-163.5067902373864399124	-43.5067902373864399124	-103.5067902373864399124	16.4932097626135600876	-73.5067902373864399124	46.4932097626135600876	-13.5067902373864399124	106.4932097626135600876
1	8	0	-1	-163.5067902373864399124	1	-1	-43.5067902373864399124	5	-103.5067902373864399124	4	16.4932097626135600876	9	5	9	42	-163.5067902373864399124	-43.5067902373864399124	-103.5067902373864399124	16.4932097626135600876	-73.5067902373864399124	46.4932097626135600876	-13.5067902373864399124	106.4932097626135600876
1	8	0	-1	-163.5067902373864399124	1	-1	-43.5067902373864399124	5	-103.5067902373864399124	4	16.4932097626135600876	9	6	8	58	-163.5067902373864399124	-43.5067902373864399124	-103.5067902373864399124	16.4932097626135600876	-73.5067902373864399124	46.4932097626135600876	-13.5067902373864399124	106.4932097626135600876
1	9	0	-1	87.0448246474948064133	4	-1	207.0448246474948064133	4	147.0448246474948064133	7	267.0448246474948064133	9	6	2	56	87.0448246474948064133	207.0448246474948064133	147.0448246474948064133	267.0448246474948064133	177.0448246474948064133	297.0448246474948064133	237.0448246474948064133	357.0448246474948064133
1	9	0	-1	87.0448246474948064133	4	-1	207.0448246474948064133	4	147.0448246474948064133	7	267.0448246474948064133	9	4	7	42	87.0448246474948064133	207.0448246474948064133	147.0448246474948064133	267.0448246474948064133	177.0448246474948064133	297.0448246474948064133	237.0448246474948064133	357.0448246474948064133
1	9	0	-1	87.0448246474948064133	4	-1	207.0448246474948064133	4	147.0448246474948064133	7	267.0448246474948064133	9	0	5	56	87.0448246474948064133	207.0448246474948064133	147.0448246474948064133	267.0448246474948064133	177.0448246474948064133	297.0448246474948064133	237.0448246474948064133	357.0448246474948064133
1	9	0	-1	87.0448246474948064133	4	-1	207.0448246474948064133	4	147.0448246474948064133	7	267.0448246474948064133	9	7	6	33	87.0448246474948064133	207.0448246474948064133	147.0448246474948064133	267.0448246474948064133	177.0448246474948064133	297.0448246474948064133	237.0448246474948064133	357.0448246474948064133
1	9	0	-1	87.0448246474948064133	4	-1	207.0448246474948064133	4	147.0448246474948064133	7	267.0448246474948064133	9	2	4	26	87.0448246474948064133	207.0448246474948064133	147.0448246474948064133	267.0448246474948064133	177.0448246474948064133	297.0448246474948064133	237.0448246474948064133	357.0448246474948064133
1	9	0	-1	87.0448246474948064133	4	-1	207.0448246474948064133	4	147.0448246474948064133	7	267.0448246474948064133	9	2	9	65	87.0448246474948064133	207.0448246474948064133	147.0448246474948064133	267.0448246474948064133	177.0448246474948064133	297.0448246474948064133	237.0448246474948064133	357.0448246474948064133
1	9	0	-1	87.0448246474948064133	4	-1	207.0448246474948064133	4	147.0448246474948064133	7	267.0448246474948064133	9	7	3	30	87.0448246474948064133	207.0448246474948064133	147.0448246474948064133	267.0448246474948064133	177.0448246474948064133	297.0448246474948064133	237.0448246474948064133	357.0448246474948064133
1	9	0	-1	87.0448246474948064133	4	-1	207.0448246474948064133	4	147.0448246474948064133	7	267.0448246474948064133	9	3	8	55	87.0448246474948064133	207.0448246474948064133	147.0448246474948064133	267.0448246474948064133	177.0448246474948064133	297.0448246474948064133	237.0448246474948064133	357.0448246474948064133
1	9	0	-1	87.0448246474948064133	4	-1	207.0448246474948064133	4	147.0448246474948064133	7	267.0448246474948064133	9	7	1	50	87.0448246474948064133	207.0448246474948064133	147.0448246474948064133	267.0448246474948064133	177.0448246474948064133	297.0448246474948064133	237.0448246474948064133	357.0448246474948064133
1	10	0	-1	-162.2563106152825866957	2	-1	-42.2563106152825866957	2	-102.2563106152825866957	1	17.7436893847174133043	6	7	5	58	-162.2563106152825866957	-42.2563106152825866957	-102.2563106152825866957	17.7436893847174133043	-72.2563106152825866957	47.7436893847174133043	-12.2563106152825866957	107.7436893847174133043
1	10	0	-1	-162.2563106152825866957	2	-1	-42.2563106152825866957	2	-102.2563106152825866957	1	17.7436893847174133043	6	6	7	55	-162.2563106152825866957	-42.2563106152825866957	-102.2563106152825866957	17.7436893847174133043	-72.2563106152825866957	47.7436893847174133043	-12.2563106152825866957	107.7436893847174133043
1	10	0	-1	-162.2563106152825866957	2	-1	-42.2563106152825866957	2	-102.2563106152825866957	1	17.7436893847174133043	6	6	9	33	-162.2563106152825866957	-42.2563106152825866957	-102.2563106152825866957	17.7436893847174133043	-72.2563106152825866957	47.7436893847174133043	-12.2563106152825866957	107.7436893847174133043
1	10	0	-1	-162.2563106152825866957	2	-1	-42.2563106152825866957	2	-102.2563106152825866957	1	17.7436893847174133043	6	1	6	55	-162.2563106152825866957	-42.2563106152825866957	-102.2563106152825866957	17.7436893847174133043	-72.2563106152825866957	47.7436893847174133043	-12.2563106152825866957	107.7436893847174133043
1	10	0	-1	-162.2563106152825866957	2	-1	-42.2563106152825866957	2	-102.2563106152825866957	1	17.7436893847174133043	6	5	4	54	-162.2563106152825866957	-42.2563106152825866957	-102.2563106152825866957	17.7436893847174133043	-72.2563106152825866957	47.7436893847174133043	-12.2563106152825866957	107.7436893847174133043
1	10	0	-1	-162.2563106152825866957	2	-1	-42.2563106152825866957	2	-102.2563106152825866957	1	17.7436893847174133043	6	1	3	29	-162.2563106152825866957	-42.2563106152825866957	-102.2563106152825866957	17.7436893847174133043	-72.2563106152825866957	47.7436893847174133043	-12.2563106152825866957	107.7436893847174133043
1	10	0	-1	-162.2563106152825866957	2	-1	-42.2563106152825866957	2	-102.2563106152825866957	1	17.7436893847174133043	6	1	2	38	-162.2563106152825866957	-42.2563106152825866957	-102.2563106152825866957	17.7436893847174133043	-72.2563106152825866957	47.7436893847174133043	-12.2563106152825866957	107.7436893847174133043
1	10	0	-1	-162.2563106152825866957	2	-1	-42.2563106152825866957	2	-102.2563106152825866957	1	17.7436893847174133043	6	2	8	50	-162.2563106152825866957	-42.2563106152825866957	-102.2563106152825866957	17.7436893847174133043	-72.2563106152825866957	47.7436893847174133043	-12.2563106152825866957	107.7436893847174133043
1	10	0	-1	-162.2563106152825866957	2	-1	-42.2563106152825866957	2	-102.2563106152825866957	1	17.7436893847174133043	6	7	1	56	-162.2563106152825866957	-42.2563106152825866957	-102.2563106152825866957	17.7436893847174133043	-72.2563106152825866957	47.7436893847174133043	-12.2563106152825866957	107.7436893847174133043
1	11	0	-1	-67.2794830816051643296	9	-1	52.7205169183948356704	1	-7.2794830816051643296	7	112.7205169183948356704	7	6	2	50	-67.2794830816051643296	52.7205169183948356704	-7.2794830816051643296	112.7205169183948356704	22.7205169183948356704	142.7205169183948214595	82.7205169183948356704	202.7205169183948214595
1	11	0	-1	-67.2794830816051643296	9	-1	52.7205169183948356704	1	-7.2794830816051643296	7	112.7205169183948356704	7	3	3	35	-67.2794830816051643296	52.7205169183948356704	-7.2794830816051643296	112.7205169183948356704	22.7205169183948356704	142.7205169183948214595	82.7205169183948356704	202.7205169183948214595
1	11	0	-1	-67.2794830816051643296	9	-1	52.7205169183948356704	1	-7.2794830816051643296	7	112.7205169183948356704	7	4	1	37	-67.2794830816051643296	52.7205169183948356704	-7.2794830816051643296	112.7205169183948356704	22.7205169183948356704	142.7205169183948214595	82.7205169183948356704	202.7205169183948214595
1	11	0	-1	-67.2794830816051643296	9	-1	52.7205169183948356704	1	-7.2794830816051643296	7	112.7205169183948356704	7	3	4	55	-67.2794830816051643296	52.7205169183948356704	-7.2794830816051643296	112.7205169183948356704	22.7205169183948356704	142.7205169183948214595	82.7205169183948356704	202.7205169183948214595
1	11	0	-1	-67.2794830816051643296	9	-1	52.7205169183948356704	1	-7.2794830816051643296	7	112.7205169183948356704	7	4	6	58	-67.2794830816051643296	52.7205169183948356704	-7.2794830816051643296	112.7205169183948356704	22.7205169183948356704	142.7205169183948214595	82.7205169183948356704	202.7205169183948214595
1	11	0	-1	-67.2794830816051643296	9	-1	52.7205169183948356704	1	-7.2794830816051643296	7	112.7205169183948356704	7	6	7	66	-67.2794830816051643296	52.7205169183948356704	-7.2794830816051643296	112.7205169183948356704	22.7205169183948356704	142.7205169183948214595	82.7205169183948356704	202.7205169183948214595
1	11	0	-1	-67.2794830816051643296	9	-1	52.7205169183948356704	1	-7.2794830816051643296	7	112.7205169183948356704	7	5	8	60	-67.2794830816051643296	52.7205169183948356704	-7.2794830816051643296	112.7205169183948356704	22.7205169183948356704	142.7205169183948214595	82.7205169183948356704	202.7205169183948214595
1	11	0	-1	-67.2794830816051643296	9	-1	52.7205169183948356704	1	-7.2794830816051643296	7	112.7205169183948356704	7	3	9	51	-67.2794830816051643296	52.7205169183948356704	-7.2794830816051643296	112.7205169183948356704	22.7205169183948356704	142.7205169183948214595	82.7205169183948356704	202.7205169183948214595
1	11	0	-1	-67.2794830816051643296	9	-1	52.7205169183948356704	1	-7.2794830816051643296	7	112.7205169183948356704	7	4	5	37	-67.2794830816051643296	52.7205169183948356704	-7.2794830816051643296	112.7205169183948356704	22.7205169183948356704	142.7205169183948214595	82.7205169183948356704	202.7205169183948214595
1	12	0	-1	-66.9346542672567608179	9	-1	53.0653457327432391821	8	-6.9346542672567608179	5	113.0653457327432391821	6	1	7	58	-66.9346542672567608179	53.0653457327432391821	-6.9346542672567608179	113.0653457327432391821	23.0653457327432391821	143.065345732743253393	83.0653457327432391821	203.065345732743253393
1	12	0	-1	-66.9346542672567608179	9	-1	53.0653457327432391821	8	-6.9346542672567608179	5	113.0653457327432391821	6	5	4	53	-66.9346542672567608179	53.0653457327432391821	-6.9346542672567608179	113.0653457327432391821	23.0653457327432391821	143.065345732743253393	83.0653457327432391821	203.065345732743253393
1	12	0	-1	-66.9346542672567608179	9	-1	53.0653457327432391821	8	-6.9346542672567608179	5	113.0653457327432391821	6	1	2	54	-66.9346542672567608179	53.0653457327432391821	-6.9346542672567608179	113.0653457327432391821	23.0653457327432391821	143.065345732743253393	83.0653457327432391821	203.065345732743253393
1	12	0	-1	-66.9346542672567608179	9	-1	53.0653457327432391821	8	-6.9346542672567608179	5	113.0653457327432391821	6	5	1	52	-66.9346542672567608179	53.0653457327432391821	-6.9346542672567608179	113.0653457327432391821	23.0653457327432391821	143.065345732743253393	83.0653457327432391821	203.065345732743253393
1	12	0	-1	-66.9346542672567608179	9	-1	53.0653457327432391821	8	-6.9346542672567608179	5	113.0653457327432391821	6	5	6	70	-66.9346542672567608179	53.0653457327432391821	-6.9346542672567608179	113.0653457327432391821	23.0653457327432391821	143.065345732743253393	83.0653457327432391821	203.065345732743253393
1	12	0	-1	-66.9346542672567608179	9	-1	53.0653457327432391821	8	-6.9346542672567608179	5	113.0653457327432391821	6	7	9	68	-66.9346542672567608179	53.0653457327432391821	-6.9346542672567608179	113.0653457327432391821	23.0653457327432391821	143.065345732743253393	83.0653457327432391821	203.065345732743253393
1	12	0	-1	-66.9346542672567608179	9	-1	53.0653457327432391821	8	-6.9346542672567608179	5	113.0653457327432391821	6	7	3	57	-66.9346542672567608179	53.0653457327432391821	-6.9346542672567608179	113.0653457327432391821	23.0653457327432391821	143.065345732743253393	83.0653457327432391821	203.065345732743253393
1	12	0	-1	-66.9346542672567608179	9	-1	53.0653457327432391821	8	-6.9346542672567608179	5	113.0653457327432391821	6	6	5	50	-66.9346542672567608179	53.0653457327432391821	-6.9346542672567608179	113.0653457327432391821	23.0653457327432391821	143.065345732743253393	83.0653457327432391821	203.065345732743253393
1	12	0	-1	-66.9346542672567608179	9	-1	53.0653457327432391821	8	-6.9346542672567608179	5	113.0653457327432391821	6	2	8	58	-66.9346542672567608179	53.0653457327432391821	-6.9346542672567608179	113.0653457327432391821	23.0653457327432391821	143.065345732743253393	83.0653457327432391821	203.065345732743253393
1	13	0	-1	58.6552941237239338079	1	-1	178.6552941237239338079	6	118.6552941237239338079	2	238.6552941237239338079	2	6	6	74	58.6552941237239338079	178.6552941237239338079	118.6552941237239338079	238.6552941237239338079	148.6552941237239338079	268.6552941237239338079	208.6552941237239338079	328.6552941237239338079
1	13	0	-1	58.6552941237239338079	1	-1	178.6552941237239338079	6	118.6552941237239338079	2	238.6552941237239338079	2	6	5	39	58.6552941237239338079	178.6552941237239338079	118.6552941237239338079	238.6552941237239338079	148.6552941237239338079	268.6552941237239338079	208.6552941237239338079	328.6552941237239338079
1	13	0	-1	58.6552941237239338079	1	-1	178.6552941237239338079	6	118.6552941237239338079	2	238.6552941237239338079	2	4	2	53	58.6552941237239338079	178.6552941237239338079	118.6552941237239338079	238.6552941237239338079	148.6552941237239338079	268.6552941237239338079	208.6552941237239338079	328.6552941237239338079
1	13	0	-1	58.6552941237239338079	1	-1	178.6552941237239338079	6	118.6552941237239338079	2	238.6552941237239338079	2	7	8	48	58.6552941237239338079	178.6552941237239338079	118.6552941237239338079	238.6552941237239338079	148.6552941237239338079	268.6552941237239338079	208.6552941237239338079	328.6552941237239338079
1	13	0	-1	58.6552941237239338079	1	-1	178.6552941237239338079	6	118.6552941237239338079	2	238.6552941237239338079	2	2	3	29	58.6552941237239338079	178.6552941237239338079	118.6552941237239338079	238.6552941237239338079	148.6552941237239338079	268.6552941237239338079	208.6552941237239338079	328.6552941237239338079
1	13	0	-1	58.6552941237239338079	1	-1	178.6552941237239338079	6	118.6552941237239338079	2	238.6552941237239338079	2	2	4	44	58.6552941237239338079	178.6552941237239338079	118.6552941237239338079	238.6552941237239338079	148.6552941237239338079	268.6552941237239338079	208.6552941237239338079	328.6552941237239338079
1	13	0	-1	58.6552941237239338079	1	-1	178.6552941237239338079	6	118.6552941237239338079	2	238.6552941237239338079	2	4	7	39	58.6552941237239338079	178.6552941237239338079	118.6552941237239338079	238.6552941237239338079	148.6552941237239338079	268.6552941237239338079	208.6552941237239338079	328.6552941237239338079
1	13	0	-1	58.6552941237239338079	1	-1	178.6552941237239338079	6	118.6552941237239338079	2	238.6552941237239338079	2	6	9	53	58.6552941237239338079	178.6552941237239338079	118.6552941237239338079	238.6552941237239338079	148.6552941237239338079	268.6552941237239338079	208.6552941237239338079	328.6552941237239338079
1	13	0	-1	58.6552941237239338079	1	-1	178.6552941237239338079	6	118.6552941237239338079	2	238.6552941237239338079	2	2	1	32	58.6552941237239338079	178.6552941237239338079	118.6552941237239338079	238.6552941237239338079	148.6552941237239338079	268.6552941237239338079	208.6552941237239338079	328.6552941237239338079
1	14	0	-1	-159.5205212057383050706	5	-1	-39.5205212057383050706	5	-99.5205212057383050706	8	20.4794787942616949294	9	4	1	54	-159.5205212057383050706	-39.5205212057383050706	-99.5205212057383050706	20.4794787942616949294	-69.5205212057383050706	50.4794787942616949294	-9.5205212057383050706	110.4794787942616949294
1	14	0	-1	-159.5205212057383050706	5	-1	-39.5205212057383050706	5	-99.5205212057383050706	8	20.4794787942616949294	9	7	6	37	-159.5205212057383050706	-39.5205212057383050706	-99.5205212057383050706	20.4794787942616949294	-69.5205212057383050706	50.4794787942616949294	-9.5205212057383050706	110.4794787942616949294
1	14	0	-1	-159.5205212057383050706	5	-1	-39.5205212057383050706	5	-99.5205212057383050706	8	20.4794787942616949294	9	4	4	37	-159.5205212057383050706	-39.5205212057383050706	-99.5205212057383050706	20.4794787942616949294	-69.5205212057383050706	50.4794787942616949294	-9.5205212057383050706	110.4794787942616949294
1	14	0	-1	-159.5205212057383050706	5	-1	-39.5205212057383050706	5	-99.5205212057383050706	8	20.4794787942616949294	9	7	8	59	-159.5205212057383050706	-39.5205212057383050706	-99.5205212057383050706	20.4794787942616949294	-69.5205212057383050706	50.4794787942616949294	-9.5205212057383050706	110.4794787942616949294
1	14	0	-1	-159.5205212057383050706	5	-1	-39.5205212057383050706	5	-99.5205212057383050706	8	20.4794787942616949294	9	3	5	75	-159.5205212057383050706	-39.5205212057383050706	-99.5205212057383050706	20.4794787942616949294	-69.5205212057383050706	50.4794787942616949294	-9.5205212057383050706	110.4794787942616949294
1	14	0	-1	-159.5205212057383050706	5	-1	-39.5205212057383050706	5	-99.5205212057383050706	8	20.4794787942616949294	9	5	7	41	-159.5205212057383050706	-39.5205212057383050706	-99.5205212057383050706	20.4794787942616949294	-69.5205212057383050706	50.4794787942616949294	-9.5205212057383050706	110.4794787942616949294
1	14	0	-1	-159.5205212057383050706	5	-1	-39.5205212057383050706	5	-99.5205212057383050706	8	20.4794787942616949294	9	0	3	55	-159.5205212057383050706	-39.5205212057383050706	-99.5205212057383050706	20.4794787942616949294	-69.5205212057383050706	50.4794787942616949294	-9.5205212057383050706	110.4794787942616949294
1	14	0	-1	-159.5205212057383050706	5	-1	-39.5205212057383050706	5	-99.5205212057383050706	8	20.4794787942616949294	9	2	9	37	-159.5205212057383050706	-39.5205212057383050706	-99.5205212057383050706	20.4794787942616949294	-69.5205212057383050706	50.4794787942616949294	-9.5205212057383050706	110.4794787942616949294
1	14	0	-1	-159.5205212057383050706	5	-1	-39.5205212057383050706	5	-99.5205212057383050706	8	20.4794787942616949294	9	3	2	45	-159.5205212057383050706	-39.5205212057383050706	-99.5205212057383050706	20.4794787942616949294	-69.5205212057383050706	50.4794787942616949294	-9.5205212057383050706	110.4794787942616949294
1	15	0	-1	-68.7494259068624700149	3	-1	51.2505740931375299851	6	-8.7494259068624700149	4	111.2505740931375299851	7	7	4	39	-68.7494259068624700149	51.2505740931375299851	-8.7494259068624700149	111.2505740931375299851	21.2505740931375299851	141.2505740931375157743	81.2505740931375299851	201.2505740931375157743
1	15	0	-1	-68.7494259068624700149	3	-1	51.2505740931375299851	6	-8.7494259068624700149	4	111.2505740931375299851	7	6	1	35	-68.7494259068624700149	51.2505740931375299851	-8.7494259068624700149	111.2505740931375299851	21.2505740931375299851	141.2505740931375157743	81.2505740931375299851	201.2505740931375157743
1	15	0	-1	-68.7494259068624700149	3	-1	51.2505740931375299851	6	-8.7494259068624700149	4	111.2505740931375299851	7	2	8	58	-68.7494259068624700149	51.2505740931375299851	-8.7494259068624700149	111.2505740931375299851	21.2505740931375299851	141.2505740931375157743	81.2505740931375299851	201.2505740931375157743
1	15	0	-1	-68.7494259068624700149	3	-1	51.2505740931375299851	6	-8.7494259068624700149	4	111.2505740931375299851	7	4	3	62	-68.7494259068624700149	51.2505740931375299851	-8.7494259068624700149	111.2505740931375299851	21.2505740931375299851	141.2505740931375157743	81.2505740931375299851	201.2505740931375157743
1	15	0	-1	-68.7494259068624700149	3	-1	51.2505740931375299851	6	-8.7494259068624700149	4	111.2505740931375299851	7	7	7	55	-68.7494259068624700149	51.2505740931375299851	-8.7494259068624700149	111.2505740931375299851	21.2505740931375299851	141.2505740931375157743	81.2505740931375299851	201.2505740931375157743
1	15	0	-1	-68.7494259068624700149	3	-1	51.2505740931375299851	6	-8.7494259068624700149	4	111.2505740931375299851	7	7	6	50	-68.7494259068624700149	51.2505740931375299851	-8.7494259068624700149	111.2505740931375299851	21.2505740931375299851	141.2505740931375157743	81.2505740931375299851	201.2505740931375157743
1	15	0	-1	-68.7494259068624700149	3	-1	51.2505740931375299851	6	-8.7494259068624700149	4	111.2505740931375299851	7	3	5	64	-68.7494259068624700149	51.2505740931375299851	-8.7494259068624700149	111.2505740931375299851	21.2505740931375299851	141.2505740931375157743	81.2505740931375299851	201.2505740931375157743
1	15	0	-1	-68.7494259068624700149	3	-1	51.2505740931375299851	6	-8.7494259068624700149	4	111.2505740931375299851	7	3	9	54	-68.7494259068624700149	51.2505740931375299851	-8.7494259068624700149	111.2505740931375299851	21.2505740931375299851	141.2505740931375157743	81.2505740931375299851	201.2505740931375157743
1	15	0	-1	-68.7494259068624700149	3	-1	51.2505740931375299851	6	-8.7494259068624700149	4	111.2505740931375299851	7	6	2	58	-68.7494259068624700149	51.2505740931375299851	-8.7494259068624700149	111.2505740931375299851	21.2505740931375299851	141.2505740931375157743	81.2505740931375299851	201.2505740931375157743
1	16	0	-1	67.079004218587442665	5	-1	187.079004218587442665	4	127.079004218587442665	7	247.079004218587442665	2	4	4	58	67.079004218587442665	187.079004218587442665	127.079004218587442665	247.079004218587442665	157.079004218587442665	277.079004218587442665	217.079004218587442665	337.079004218587442665
1	16	0	-1	67.079004218587442665	5	-1	187.079004218587442665	4	127.079004218587442665	7	247.079004218587442665	2	5	2	36	67.079004218587442665	187.079004218587442665	127.079004218587442665	247.079004218587442665	157.079004218587442665	277.079004218587442665	217.079004218587442665	337.079004218587442665
1	16	0	-1	67.079004218587442665	5	-1	187.079004218587442665	4	127.079004218587442665	7	247.079004218587442665	2	5	3	37	67.079004218587442665	187.079004218587442665	127.079004218587442665	247.079004218587442665	157.079004218587442665	277.079004218587442665	217.079004218587442665	337.079004218587442665
1	16	0	-1	67.079004218587442665	5	-1	187.079004218587442665	4	127.079004218587442665	7	247.079004218587442665	2	5	5	27	67.079004218587442665	187.079004218587442665	127.079004218587442665	247.079004218587442665	157.079004218587442665	277.079004218587442665	217.079004218587442665	337.079004218587442665
1	16	0	-1	67.079004218587442665	5	-1	187.079004218587442665	4	127.079004218587442665	7	247.079004218587442665	2	3	6	63	67.079004218587442665	187.079004218587442665	127.079004218587442665	247.079004218587442665	157.079004218587442665	277.079004218587442665	217.079004218587442665	337.079004218587442665
1	16	0	-1	67.079004218587442665	5	-1	187.079004218587442665	4	127.079004218587442665	7	247.079004218587442665	2	6	1	73	67.079004218587442665	187.079004218587442665	127.079004218587442665	247.079004218587442665	157.079004218587442665	277.079004218587442665	217.079004218587442665	337.079004218587442665
1	16	0	-1	67.079004218587442665	5	-1	187.079004218587442665	4	127.079004218587442665	7	247.079004218587442665	2	4	8	47	67.079004218587442665	187.079004218587442665	127.079004218587442665	247.079004218587442665	157.079004218587442665	277.079004218587442665	217.079004218587442665	337.079004218587442665
1	16	0	-1	67.079004218587442665	5	-1	187.079004218587442665	4	127.079004218587442665	7	247.079004218587442665	2	6	9	63	67.079004218587442665	187.079004218587442665	127.079004218587442665	247.079004218587442665	157.079004218587442665	277.079004218587442665	217.079004218587442665	337.079004218587442665
1	16	0	-1	67.079004218587442665	5	-1	187.079004218587442665	4	127.079004218587442665	7	247.079004218587442665	2	2	7	53	67.079004218587442665	187.079004218587442665	127.079004218587442665	247.079004218587442665	157.079004218587442665	277.079004218587442665	217.079004218587442665	337.079004218587442665
1	17	0	-1	137.42309462219083116	7	-1	257.42309462219083116	9	197.42309462219083116	4	317.42309462219083116	3	7	7	65	137.42309462219083116	257.42309462219083116	197.42309462219083116	317.42309462219083116	227.42309462219083116	347.42309462219083116	287.42309462219083116	407.42309462219083116
1	17	0	-1	137.42309462219083116	7	-1	257.42309462219083116	9	197.42309462219083116	4	317.42309462219083116	3	7	8	60	137.42309462219083116	257.42309462219083116	197.42309462219083116	317.42309462219083116	227.42309462219083116	347.42309462219083116	287.42309462219083116	407.42309462219083116
1	17	0	-1	137.42309462219083116	7	-1	257.42309462219083116	9	197.42309462219083116	4	317.42309462219083116	3	7	2	40	137.42309462219083116	257.42309462219083116	197.42309462219083116	317.42309462219083116	227.42309462219083116	347.42309462219083116	287.42309462219083116	407.42309462219083116
1	17	0	-1	137.42309462219083116	7	-1	257.42309462219083116	9	197.42309462219083116	4	317.42309462219083116	3	1	5	42	137.42309462219083116	257.42309462219083116	197.42309462219083116	317.42309462219083116	227.42309462219083116	347.42309462219083116	287.42309462219083116	407.42309462219083116
1	17	0	-1	137.42309462219083116	7	-1	257.42309462219083116	9	197.42309462219083116	4	317.42309462219083116	3	6	3	75	137.42309462219083116	257.42309462219083116	197.42309462219083116	317.42309462219083116	227.42309462219083116	347.42309462219083116	287.42309462219083116	407.42309462219083116
1	17	0	-1	137.42309462219083116	7	-1	257.42309462219083116	9	197.42309462219083116	4	317.42309462219083116	3	6	9	56	137.42309462219083116	257.42309462219083116	197.42309462219083116	317.42309462219083116	227.42309462219083116	347.42309462219083116	287.42309462219083116	407.42309462219083116
1	17	0	-1	137.42309462219083116	7	-1	257.42309462219083116	9	197.42309462219083116	4	317.42309462219083116	3	6	1	55	137.42309462219083116	257.42309462219083116	197.42309462219083116	317.42309462219083116	227.42309462219083116	347.42309462219083116	287.42309462219083116	407.42309462219083116
1	17	0	-1	137.42309462219083116	7	-1	257.42309462219083116	9	197.42309462219083116	4	317.42309462219083116	3	6	4	71	137.42309462219083116	257.42309462219083116	197.42309462219083116	317.42309462219083116	227.42309462219083116	347.42309462219083116	287.42309462219083116	407.42309462219083116
1	17	0	-1	137.42309462219083116	7	-1	257.42309462219083116	9	197.42309462219083116	4	317.42309462219083116	3	6	6	40	137.42309462219083116	257.42309462219083116	197.42309462219083116	317.42309462219083116	227.42309462219083116	347.42309462219083116	287.42309462219083116	407.42309462219083116
1	18	0	-1	123.654090562754788607	8	-1	243.654090562754788607	3	183.654090562754788607	9	303.654090562754788607	3	3	3	65	123.654090562754788607	243.654090562754788607	183.654090562754788607	303.654090562754788607	213.654090562754788607	333.654090562754788607	273.654090562754788607	393.654090562754788607
1	18	0	-1	123.654090562754788607	8	-1	243.654090562754788607	3	183.654090562754788607	9	303.654090562754788607	3	6	8	65	123.654090562754788607	243.654090562754788607	183.654090562754788607	303.654090562754788607	213.654090562754788607	333.654090562754788607	273.654090562754788607	393.654090562754788607
1	18	0	-1	123.654090562754788607	8	-1	243.654090562754788607	3	183.654090562754788607	9	303.654090562754788607	3	0	5	38	123.654090562754788607	243.654090562754788607	183.654090562754788607	303.654090562754788607	213.654090562754788607	333.654090562754788607	273.654090562754788607	393.654090562754788607
1	18	0	-1	123.654090562754788607	8	-1	243.654090562754788607	3	183.654090562754788607	9	303.654090562754788607	3	5	9	60	123.654090562754788607	243.654090562754788607	183.654090562754788607	303.654090562754788607	213.654090562754788607	333.654090562754788607	273.654090562754788607	393.654090562754788607
1	18	0	-1	123.654090562754788607	8	-1	243.654090562754788607	3	183.654090562754788607	9	303.654090562754788607	3	6	1	33	123.654090562754788607	243.654090562754788607	183.654090562754788607	303.654090562754788607	213.654090562754788607	333.654090562754788607	273.654090562754788607	393.654090562754788607
1	18	0	-1	123.654090562754788607	8	-1	243.654090562754788607	3	183.654090562754788607	9	303.654090562754788607	3	3	4	46	123.654090562754788607	243.654090562754788607	183.654090562754788607	303.654090562754788607	213.654090562754788607	333.654090562754788607	273.654090562754788607	393.654090562754788607
1	18	0	-1	123.654090562754788607	8	-1	243.654090562754788607	3	183.654090562754788607	9	303.654090562754788607	3	6	2	60	123.654090562754788607	243.654090562754788607	183.654090562754788607	303.654090562754788607	213.654090562754788607	333.654090562754788607	273.654090562754788607	393.654090562754788607
1	18	0	-1	123.654090562754788607	8	-1	243.654090562754788607	3	183.654090562754788607	9	303.654090562754788607	3	3	6	71	123.654090562754788607	243.654090562754788607	183.654090562754788607	303.654090562754788607	213.654090562754788607	333.654090562754788607	273.654090562754788607	393.654090562754788607
1	18	0	-1	123.654090562754788607	8	-1	243.654090562754788607	3	183.654090562754788607	9	303.654090562754788607	3	1	7	46	123.654090562754788607	243.654090562754788607	183.654090562754788607	303.654090562754788607	213.654090562754788607	333.654090562754788607	273.654090562754788607	393.654090562754788607