subject,trial_number,Cross_position,Circle_1,Position_1,Color_1,Circle_2,Position_2,Color_2,Position_3,Color_3,Position_4,Color_4,p_confidence,response_color,response_time,angle_1,angle_2,angle_3,angle_4,angle_1_cue,angle_2_cue,angle_3_cue,angle_4_cue
1,0,0,0,0,0,0,0,0,0,0,0,0,0,-1,0,0,0,0,0,0,0,0,0
1,0,0,0,0,0,0,0,0,0,0,0,0,0,-1,0,0,0,0,0,0,0,0,0
1,0,0,0,0,0,0,0,0,0,0,0,0,0,-1,0,0,0,0,0,0,0,0,0
1,0,0,0,0,0,0,0,0,0,0,0,0,0,-1,0,0,0,0,0,0,0,0,0
1,0,0,0,0,0,0,0,0,0,0,0,0,0,-1,0,0,0,0,0,0,0,0,0
1,0,0,0,0,0,0,0,0,0,0,0,0,0,-1,0,0,0,0,0,0,0,0,0
1,0,0,0,0,0,0,0,0,0,0,0,0,0,-1,0,0,0,0,0,0,0,0,0
1,0,0,0,0,0,0,0,0,0,0,0,0,7,3,60,-162.0850604,-42.08506037,-102.0850604,17.91493963,-72.08506037,47.91493963,-12.08506037,107.9149396
1,1,0,-1,-155.1434609,6,-1,-35.14346086,4,-95.14346086,4,24.85653914,6,3,1,51,-155.1434609,-35.14346086,-95.14346086,24.85653914,-65.14346086,54.85653914,-5.143460858,114.8565391
1,1,0,-1,-155.1434609,6,-1,-35.14346086,4,-95.14346086,4,24.85653914,6,4,3,60,-155.1434609,-35.14346086,-95.14346086,24.85653914,-65.14346086,54.85653914,-5.143460858,114.8565391
1,1,0,-1,-155.1434609,6,-1,-35.14346086,4,-95.14346086,4,24.85653914,6,1,8,41,-155.1434609,-35.14346086,-95.14346086,24.85653914,-65.14346086,54.85653914,-5.143460858,114.8565391
1,1,0,-1,-155.1434609,6,-1,-35.14346086,4,-95.14346086,4,24.85653914,6,0,6,60,-155.1434609,-35.14346086,-95.14346086,24.85653914,-65.14346086,54.85653914,-5.143460858,114.8565391
1,1,0,-1,-155.1434609,6,-1,-35.14346086,4,-95.14346086,4,24.85653914,6,4,9,50,-155.1434609,-35.14346086,-95.14346086,24.85653914,-65.14346086,54.85653914,-5.143460858,114.8565391
1,1,0,-1,-155.1434609,6,-1,-35.14346086,4,-95.14346086,4,24.85653914,6,1,4,58,-155.1434609,-35.14346086,-95.14346086,24.85653914,-65.14346086,54.85653914,-5.143460858,114.8565391
1,1,0,-1,-155.1434609,6,-1,-35.14346086,4,-95.14346086,4,24.85653914,6,0,2,51,-155.1434609,-35.14346086,-95.14346086,24.85653914,-65.14346086,54.85653914,-5.143460858,114.8565391
1,1,0,-1,-155.1434609,6,-1,-35.14346086,4,-95.14346086,4,24.85653914,6,1,7,64,-155.1434609,-35.14346086,-95.14346086,24.85653914,-65.14346086,54.85653914,-5.143460858,114.8565391
1,1,0,-1,-155.1434609,6,-1,-35.14346086,4,-95.14346086,4,24.85653914,6,0,5,66,-155.1434609,-35.14346086,-95.14346086,24.85653914,-65.14346086,54.85653914,-5.143460858,114.8565391
1,2,0,-1,-176.3734663,6,-1,-56.37346633,1,-116.3734663,1,3.626533673,8,4,4,58,-176.3734663,-56.37346633,-116.3734663,3.626533673,-86.37346633,33.62653367,-26.37346633,93.62653367
1,2,0,-1,-176.3734663,6,-1,-56.37346633,1,-116.3734663,1,3.626533673,8,0,7,61,-176.3734663,-56.37346633,-116.3734663,3.626533673,-86.37346633,33.62653367,-26.37346633,93.62653367
1,2,0,-1,-176.3734663,6,-1,-56.37346633,1,-116.3734663,1,3.626533673,8,6,9,55,-176.3734663,-56.37346633,-116.3734663,3.626533673,-86.37346633,33.62653367,-26.37346633,93.62653367
1,2,0,-1,-176.3734663,6,-1,-56.37346633,1,-116.3734663,1,3.626533673,8,7,3,55,-176.3734663,-56.37346633,-116.3734663,3.626533673,-86.37346633,33.62653367,-26.37346633,93.62653367
1,2,0,-1,-176.3734663,6,-1,-56.37346633,1,-116.3734663,1,3.626533673,8,4,6,54,-176.3734663,-56.37346633,-116.3734663,3.626533673,-86.37346633,33.62653367,-26.37346633,93.62653367
1,2,0,-1,-176.3734663,6,-1,-56.37346633,1,-116.3734663,1,3.626533673,8,5,5,48,-176.3734663,-56.37346633,-116.3734663,3.626533673,-86.37346633,33.62653367,-26.37346633,93.62653367
1,2,0,-1,-176.3734663,6,-1,-56.37346633,1,-116.3734663,1,3.626533673,8,7,8,51,-176.3734663,-56.37346633,-116.3734663,3.626533673,-86.37346633,33.62653367,-26.37346633,93.62653367
1,2,0,-1,-176.3734663,6,-1,-56.37346633,1,-116.3734663,1,3.626533673,8,5,2,65,-176.3734663,-56.37346633,-116.3734663,3.626533673,-86.37346633,33.62653367,-26.37346633,93.62653367
1,2,0,-1,-176.3734663,6,-1,-56.37346633,1,-116.3734663,1,3.626533673,8,2,1,64,-176.3734663,-56.37346633,-116.3734663,3.626533673,-86.37346633,33.62653367,-26.37346633,93.62653367
1,3,0,-1,152.6869882,7,-1,272.6869882,6,212.6869882,4,332.6869882,4,6,6,56,152.6869882,272.6869882,212.6869882,332.6869882,242.6869882,362.6869882,302.6869882,422.6869882
1,3,0,-1,152.6869882,7,-1,272.6869882,6,212.6869882,4,332.6869882,4,7,3,64,152.6869882,272.6869882,212.6869882,332.6869882,242.6869882,362.6869882,302.6869882,422.6869882
1,3,0,-1,152.6869882,7,-1,272.6869882,6,212.6869882,4,332.6869882,4,3,7,53,152.6869882,272.6869882,212.6869882,332.6869882,242.6869882,362.6869882,302.6869882,422.6869882
1,3,0,-1,152.6869882,7,-1,272.6869882,6,212.6869882,4,332.6869882,4,6,4,55,152.6869882,272.6869882,212.6869882,332.6869882,242.6869882,362.6869882,302.6869882,422.6869882
1,3,0,-1,152.6869882,7,-1,272.6869882,6,212.6869882,4,332.6869882,4,3,1,54,152.6869882,272.6869882,212.6869882,332.6869882,242.6869882,362.6869882,302.6869882,422.6869882
1,3,0,-1,152.6869882,7,-1,272.6869882,6,212.6869882,4,332.6869882,4,7,9,55,152.6869882,272.6869882,212.6869882,332.6869882,242.6869882,362.6869882,302.6869882,422.6869882
1,3,0,-1,152.6869882,7,-1,272.6869882,6,212.6869882,4,332.6869882,4,7,8,66,152.6869882,272.6869882,212.6869882,332.6869882,242.6869882,362.6869882,302.6869882,422.6869882
1,3,0,-1,152.6869882,7,-1,272.6869882,6,212.6869882,4,332.6869882,4,5,2,56,152.6869882,272.6869882,212.6869882,332.6869882,242.6869882,362.6869882,302.6869882,422.6869882
1,3,0,-1,152.6869882,7,-1,272.6869882,6,212.6869882,4,332.6869882,4,0,5,65,152.6869882,272.6869882,212.6869882,332.6869882,242.6869882,362.6869882,302.6869882,422.6869882
1,4,0,-1,94.68891842,3,-1,214.6889184,1,154.6889184,5,274.6889184,5,0,6,62,94.68891842,214.6889184,154.6889184,274.6889184,184.6889184,304.6889184,244.6889184,364.6889184
1,4,0,-1,94.68891842,3,-1,214.6889184,1,154.6889184,5,274.6889184,5,7,4,60,94.68891842,214.6889184,154.6889184,274.6889184,184.6889184,304.6889184,244.6889184,364.6889184
1,4,0,-1,94.68891842,3,-1,214.6889184,1,154.6889184,5,274.6889184,5,0,5,75,94.68891842,214.6889184,154.6889184,274.6889184,184.6889184,304.6889184,244.6889184,364.6889184
1,4,0,-1,94.68891842,3,-1,214.6889184,1,154.6889184,5,274.6889184,5,3,9,34,94.68891842,214.6889184,154.6889184,274.6889184,184.6889184,304.6889184,244.6889184,364.6889184
1,4,0,-1,94.68891842,3,-1,214.6889184,1,154.6889184,5,274.6889184,5,7,3,38,94.68891842,214.6889184,154.6889184,274.6889184,184.6889184,304.6889184,244.6889184,364.6889184
1,4,0,-1,94.68891842,3,-1,214.6889184,1,154.6889184,5,274.6889184,5,1,7,61,94.68891842,214.6889184,154.6889184,274.6889184,184.6889184,304.6889184,244.6889184,364.6889184
1,4,0,-1,94.68891842,3,-1,214.6889184,1,154.6889184,5,274.6889184,5,7,2,48,94.68891842,214.6889184,154.6889184,274.6889184,184.6889184,304.6889184,244.6889184,364.6889184
1,4,0,-1,94.68891842,3,-1,214.6889184,1,154.6889184,5,274.6889184,5,4,1,29,94.68891842,214.6889184,154.6889184,274.6889184,184.6889184,304.6889184,244.6889184,364.6889184
1,4,0,-1,94.68891842,3,-1,214.6889184,1,154.6889184,5,274.6889184,5,2,8,48,94.68891842,214.6889184,154.6889184,274.6889184,184.6889184,304.6889184,244.6889184,364.6889184
1,5,0,-1,-111.8086121,4,-1,8.191387921,2,-51.80861208,8,68.19138792,2,2,9,38,-111.8086121,8.191387921,-51.80861208,68.19138792,-21.80861208,98.19138792,38.19138792,158.1913879
1,5,0,-1,-111.8086121,4,-1,8.191387921,2,-51.80861208,8,68.19138792,2,3,2,69,-111.8086121,8.191387921,-51.80861208,68.19138792,-21.80861208,98.19138792,38.19138792,158.1913879
1,5,0,-1,-111.8086121,4,-1,8.191387921,2,-51.80861208,8,68.19138792,2,1,8,53,-111.8086121,8.191387921,-51.80861208,68.19138792,-21.80861208,98.19138792,38.19138792,158.1913879
1,5,0,-1,-111.8086121,4,-1,8.191387921,2,-51.80861208,8,68.19138792,2,0,4,49,-111.8086121,8.191387921,-51.80861208,68.19138792,-21.80861208,98.19138792,38.19138792,158.1913879
1,5,0,-1,-111.8086121,4,-1,8.191387921,2,-51.80861208,8,68.19138792,2,2,7,43,-111.8086121,8.191387921,-51.80861208,68.19138792,-21.80861208,98.19138792,38.19138792,158.1913879
1,5,0,-1,-111.8086121,4,-1,8.191387921,2,-51.80861208,8,68.19138792,2,5,1,54,-111.8086121,8.191387921,-51.80861208,68.19138792,-21.80861208,98.19138792,38.19138792,158.1913879
1,5,0,-1,-111.8086121,4,-1,8.191387921,2,-51.80861208,8,68.19138792,2,7,6,53,-111.8086121,8.191387921,-51.80861208,68.19138792,-21.80861208,98.19138792,38.19138792,158.1913879
1,5,0,-1,-111.8086121,4,-1,8.191387921,2,-51.80861208,8,68.19138792,2,3,3,50,-111.8086121,8.191387921,-51.80861208,68.19138792,-21.80861208,98.19138792,38.19138792,158.1913879
1,5,0,-1,-111.8086121,4,-1,8.191387921,2,-51.80861208,8,68.19138792,2,0,5,44,-111.8086121,8.191387921,-51.80861208,68.19138792,-21.80861208,98.19138792,38.19138792,158.1913879
1,6,0,-1,79.06894137,2,-1,199.0689414,7,139.0689414,2,259.0689414,7,7,3,68,79.06894137,199.0689414,139.0689414,259.0689414,169.0689414,289.0689414,229.0689414,349.0689414
1,6,0,-1,79.06894137,2,-1,199.0689414,7,139.0689414,2,259.0689414,7,3,4,60,79.06894137,199.0689414,139.0689414,259.0689414,169.0689414,289.0689414,229.0689414,349.0689414
1,6,0,-1,79.06894137,2,-1,199.0689414,7,139.0689414,2,259.0689414,7,7,7,57,79.06894137,199.0689414,139.0689414,259.0689414,169.0689414,289.0689414,229.0689414,349.0689414
1,6,0,-1,79.06894137,2,-1,199.0689414,7,139.0689414,2,259.0689414,7,3,5,40,79.06894137,199.0689414,139.0689414,259.0689414,169.0689414,289.0689414,229.0689414,349.0689414
1,6,0,-1,79.06894137,2,-1,199.0689414,7,139.0689414,2,259.0689414,7,2,1,50,79.06894137,199.0689414,139.0689414,259.0689414,169.0689414,289.0689414,229.0689414,349.0689414
1,6,0,-1,79.06894137,2,-1,199.0689414,7,139.0689414,2,259.0689414,7,1,9,64,79.06894137,199.0689414,139.0689414,259.0689414,169.0689414,289.0689414,229.0689414,349.0689414
1,6,0,-1,79.06894137,2,-1,199.0689414,7,139.0689414,2,259.0689414,7,5,6,48,79.06894137,199.0689414,139.0689414,259.0689414,169.0689414,289.0689414,229.0689414,349.0689414
1,6,0,-1,79.06894137,2,-1,199.0689414,7,139.0689414,2,259.0689414,7,4,2,40,79.06894137,199.0689414,139.0689414,259.0689414,169.0689414,289.0689414,229.0689414,349.0689414
1,6,0,-1,79.06894137,2,-1,199.0689414,7,139.0689414,2,259.0689414,7,0,8,36,79.06894137,199.0689414,139.0689414,259.0689414,169.0689414,289.0689414,229.0689414,349.0689414
1,7,0,-1,-141.2510282,8,-1,-21.25102816,5,-81.25102816,5,38.74897184,5,6,1,59,-141.2510282,-21.25102816,-81.25102816,38.74897184,-51.25102816,68.74897184,8.748971838,128.7489718
1,7,0,-1,-141.2510282,8,-1,-21.25102816,5,-81.25102816,5,38.74897184,5,4,8,33,-141.2510282,-21.25102816,-81.25102816,38.74897184,-51.25102816,68.74897184,8.748971838,128.7489718
1,7,0,-1,-141.2510282,8,-1,-21.25102816,5,-81.25102816,5,38.74897184,5,2,4,52,-141.2510282,-21.25102816,-81.25102816,38.74897184,-51.25102816,68.74897184,8.748971838,128.7489718
1,7,0,-1,-141.2510282,8,-1,-21.25102816,5,-81.25102816,5,38.74897184,5,7,9,64,-141.2510282,-21.25102816,-81.25102816,38.74897184,-51.25102816,68.74897184,8.748971838,128.7489718
1,7,0,-1,-141.2510282,8,-1,-21.25102816,5,-81.25102816,5,38.74897184,5,0,2,72,-141.2510282,-21.25102816,-81.25102816,38.74897184,-51.25102816,68.74897184,8.748971838,128.7489718
1,7,0,-1,-141.2510282,8,-1,-21.25102816,5,-81.25102816,5,38.74897184,5,6,3,36,-141.2510282,-21.25102816,-81.25102816,38.74897184,-51.25102816,68.74897184,8.748971838,128.7489718
1,7,0,-1,-141.2510282,8,-1,-21.25102816,5,-81.25102816,5,38.74897184,5,6,5,48,-141.2510282,-21.25102816,-81.25102816,38.74897184,-51.25102816,68.74897184,8.748971838,128.7489718
1,7,0,-1,-141.2510282,8,-1,-21.25102816,5,-81.25102816,5,38.74897184,5,6,7,83,-141.2510282,-21.25102816,-81.25102816,38.74897184,-51.25102816,68.74897184,8.748971838,128.7489718
1,7,0,-1,-141.2510282,8,-1,-21.25102816,5,-81.25102816,5,38.74897184,5,7,6,49,-141.2510282,-21.25102816,-81.25102816,38.74897184,-51.25102816,68.74897184,8.748971838,128.7489718
1,8,0,-1,-163.5067902,1,-1,-43.50679024,5,-103.5067902,4,16.49320976,9,3,6,44,-163.5067902,-43.50679024,-103.5067902,16.49320976,-73.50679024,46.49320976,-13.50679024,106.4932098
1,8,0,-1,-163.5067902,1,-1,-43.50679024,5,-103.5067902,4,16.49320976,9,7,5,46,-163.5067902,-43.50679024,-103.5067902,16.49320976,-73.50679024,46.49320976,-13.50679024,106.4932098
1,8,0,-1,-163.5067902,1,-1,-43.50679024,5,-103.5067902,4,16.49320976,9,1,3,27,-163.5067902,-43.50679024,-103.5067902,16.49320976,-73.50679024,46.49320976,-13.50679024,106.4932098
1,8,0,-1,-163.5067902,1,-1,-43.50679024,5,-103.5067902,4,16.49320976,9,0,2,43,-163.5067902,-43.50679024,-103.5067902,16.49320976,-73.50679024,46.49320976,-13.50679024,106.4932098
1,8,0,-1,-163.5067902,1,-1,-43.50679024,5,-103.5067902,4,16.49320976,9,7,4,59,-163.5067902,-43.50679024,-103.5067902,16.49320976,-73.50679024,46.49320976,-13.50679024,106.4932098
1,8,0,-1,-163.5067902,1,-1,-43.50679024,5,-103.5067902,4,16.49320976,9,6,1,37,-163.5067902,-43.50679024,-103.5067902,16.49320976,-73.50679024,46.49320976,-13.50679024,106.4932098
1,8,0,-1,-163.5067902,1,-1,-43.50679024,5,-103.5067902,4,16.49320976,9,4,7,41,-163.5067902,-43.50679024,-103.5067902,16.49320976,-73.50679024,46.49320976,-13.50679024,106.4932098
1,8,0,-1,-163.5067902,1,-1,-43.50679024,5,-103.5067902,4,16.49320976,9,5,9,42,-163.5067902,-43.50679024,-103.5067902,16.49320976,-73.50679024,46.49320976,-13.50679024,106.4932098
1,8,0,-1,-163.5067902,1,-1,-43.50679024,5,-103.5067902,4,16.49320976,9,6,8,58,-163.5067902,-43.50679024,-103.5067902,16.49320976,-73.50679024,46.49320976,-13.50679024,106.4932098
1,9,0,-1,87.04482465,4,-1,207.0448246,4,147.0448246,7,267.0448246,9,6,2,56,87.04482465,207.0448246,147.0448246,267.0448246,177.0448246,297.0448246,237.0448246,357.0448246
1,9,0,-1,87.04482465,4,-1,207.0448246,4,147.0448246,7,267.0448246,9,4,7,42,87.04482465,207.0448246,147.0448246,267.0448246,177.0448246,297.0448246,237.0448246,357.0448246
1,9,0,-1,87.04482465,4,-1,207.0448246,4,147.0448246,7,267.0448246,9,0,5,56,87.04482465,207.0448246,147.0448246,267.0448246,177.0448246,297.0448246,237.0448246,357.0448246
1,9,0,-1,87.04482465,4,-1,207.0448246,4,147.0448246,7,267.0448246,9,7,6,33,87.04482465,207.0448246,147.0448246,267.0448246,177.0448246,297.0448246,237.0448246,357.0448246
1,9,0,-1,87.04482465,4,-1,207.0448246,4,147.0448246,7,267.0448246,9,2,4,26,87.04482465,207.0448246,147.0448246,267.0448246,177.0448246,297.0448246,237.0448246,357.0448246
1,9,0,-1,87.04482465,4,-1,207.0448246,4,147.0448246,7,267.0448246,9,2,9,65,87.04482465,207.0448246,147.0448246,267.0448246,177.0448246,297.0448246,237.0448246,357.0448246
1,9,0,-1,87.04482465,4,-1,207.0448246,4,147.0448246,7,267.0448246,9,7,3,30,87.04482465,207.0448246,147.0448246,267.0448246,177.0448246,297.0448246,237.0448246,357.0448246
1,9,0,-1,87.04482465,4,-1,207.0448246,4,147.0448246,7,267.0448246,9,3,8,55,87.04482465,207.0448246,147.0448246,267.0448246,177.0448246,297.0448246,237.0448246,357.0448246
1,9,0,-1,87.04482465,4,-1,207.0448246,4,147.0448246,7,267.0448246,9,7,1,50,87.04482465,207.0448246,147.0448246,267.0448246,177.0448246,297.0448246,237.0448246,357.0448246
1,10,0,-1,-162.2563106,2,-1,-42.25631062,2,-102.2563106,1,17.74368938,6,7,5,58,-162.2563106,-42.25631062,-102.2563106,17.74368938,-72.25631062,47.74368938,-12.25631062,107.7436894
1,10,0,-1,-162.2563106,2,-1,-42.25631062,2,-102.2563106,1,17.74368938,6,6,7,55,-162.2563106,-42.25631062,-102.2563106,17.74368938,-72.25631062,47.74368938,-12.25631062,107.7436894
1,10,0,-1,-162.2563106,2,-1,-42.25631062,2,-102.2563106,1,17.74368938,6,6,9,33,-162.2563106,-42.25631062,-102.2563106,17.74368938,-72.25631062,47.74368938,-12.25631062,107.7436894
1,10,0,-1,-162.2563106,2,-1,-42.25631062,2,-102.2563106,1,17.74368938,6,1,6,55,-162.2563106,-42.25631062,-102.2563106,17.74368938,-72.25631062,47.74368938,-12.25631062,107.7436894
1,10,0,-1,-162.2563106,2,-1,-42.25631062,2,-102.2563106,1,17.74368938,6,5,4,54,-162.2563106,-42.25631062,-102.2563106,17.74368938,-72.25631062,47.74368938,-12.25631062,107.7436894
1,10,0,-1,-162.2563106,2,-1,-42.25631062,2,-102.2563106,1,17.74368938,6,1,3,29,-162.2563106,-42.25631062,-102.2563106,17.74368938,-72.25631062,47.74368938,-12.25631062,107.7436894
1,10,0,-1,-162.2563106,2,-1,-42.25631062,2,-102.2563106,1,17.74368938,6,1,2,38,-162.2563106,-42.25631062,-102.2563106,17.74368938,-72.25631062,47.74368938,-12.25631062,107.7436894
1,10,0,-1,-162.2563106,2,-1,-42.25631062,2,-102.2563106,1,17.74368938,6,2,8,50,-162.2563106,-42.25631062,-102.2563106,17.74368938,-72.25631062,47.74368938,-12.25631062,107.7436894
1,10,0,-1,-162.2563106,2,-1,-42.25631062,2,-102.2563106,1,17.74368938,6,7,1,56,-162.2563106,-42.25631062,-102.2563106,17.74368938,-72.25631062,47.74368938,-12.25631062,107.7436894
1,11,0,-1,-67.27948308,9,-1,52.72051692,1,-7.279483082,7,112.7205169,7,6,2,50,-67.27948308,52.72051692,-7.279483082,112.7205169,22.72051692,142.7205169,82.72051692,202.7205169
1,11,0,-1,-67.27948308,9,-1,52.72051692,1,-7.279483082,7,112.7205169,7,3,3,35,-67.27948308,52.72051692,-7.279483082,112.7205169,22.72051692,142.7205169,82.72051692,202.7205169
1,11,0,-1,-67.27948308,9,-1,52.72051692,1,-7.279483082,7,112.7205169,7,4,1,37,-67.27948308,52.72051692,-7.279483082,112.7205169,22.72051692,142.7205169,82.72051692,202.7205169
1,11,0,-1,-67.27948308,9,-1,52.72051692,1,-7.279483082,7,112.7205169,7,3,4,55,-67.27948308,52.72051692,-7.279483082,112.7205169,22.72051692,142.7205169,82.72051692,202.7205169
1,11,0,-1,-67.27948308,9,-1,52.72051692,1,-7.279483082,7,112.7205169,7,4,6,58,-67.27948308,52.72051692,-7.279483082,112.7205169,22.72051692,142.7205169,82.72051692,202.7205169
1,11,0,-1,-67.27948308,9,-1,52.72051692,1,-7.279483082,7,112.7205169,7,6,7,66,-67.27948308,52.72051692,-7.279483082,112.7205169,22.72051692,142.7205169,82.72051692,202.7205169
1,11,0,-1,-67.27948308,9,-1,52.72051692,1,-7.279483082,7,112.7205169,7,5,8,60,-67.27948308,52.72051692,-7.279483082,112.7205169,22.72051692,142.7205169,82.72051692,202.7205169
1,11,0,-1,-67.27948308,9,-1,52.72051692,1,-7.279483082,7,112.7205169,7,3,9,51,-67.27948308,52.72051692,-7.279483082,112.7205169,22.72051692,142.7205169,82.72051692,202.7205169
1,11,0,-1,-67.27948308,9,-1,52.72051692,1,-7.279483082,7,112.7205169,7,4,5,37,-67.27948308,52.72051692,-7.279483082,112.7205169,22.72051692,142.7205169,82.72051692,202.7205169
1,12,0,-1,-66.93465427,9,-1,53.06534573,8,-6.934654267,5,113.0653457,6,1,7,58,-66.93465427,53.06534573,-6.934654267,113.0653457,23.06534573,143.0653457,83.06534573,203.0653457
1,12,0,-1,-66.93465427,9,-1,53.06534573,8,-6.934654267,5,113.0653457,6,5,4,53,-66.93465427,53.06534573,-6.934654267,113.0653457,23.06534573,143.0653457,83.06534573,203.0653457
1,12,0,-1,-66.93465427,9,-1,53.06534573,8,-6.934654267,5,113.0653457,6,1,2,54,-66.93465427,53.06534573,-6.934654267,113.0653457,23.06534573,143.0653457,83.06534573,203.0653457
1,12,0,-1,-66.93465427,9,-1,53.06534573,8,-6.934654267,5,113.0653457,6,5,1,52,-66.93465427,53.06534573,-6.934654267,113.0653457,23.06534573,143.0653457,83.06534573,203.0653457
1,12,0,-1,-66.93465427,9,-1,53.06534573,8,-6.934654267,5,113.0653457,6,5,6,70,-66.93465427,53.06534573,-6.934654267,113.0653457,23.06534573,143.0653457,83.06534573,203.0653457
1,12,0,-1,-66.93465427,9,-1,53.06534573,8,-6.934654267,5,113.0653457,6,7,9,68,-66.93465427,53.06534573,-6.934654267,113.0653457,23.06534573,143.0653457,83.06534573,203.0653457
1,12,0,-1,-66.93465427,9,-1,53.06534573,8,-6.934654267,5,113.0653457,6,7,3,57,-66.93465427,53.06534573,-6.934654267,113.0653457,23.06534573,143.0653457,83.06534573,203.0653457
1,12,0,-1,-66.93465427,9,-1,53.06534573,8,-6.934654267,5,113.0653457,6,6,5,50,-66.93465427,53.06534573,-6.934654267,113.0653457,23.06534573,143.0653457,83.06534573,203.0653457
1,12,0,-1,-66.93465427,9,-1,53.06534573,8,-6.934654267,5,113.0653457,6,2,8,58,-66.93465427,53.06534573,-6.934654267,113.0653457,23.06534573,143.0653457,83.06534573,203.0653457
1,13,0,-1,58.65529412,1,-1,178.6552941,6,118.6552941,2,238.6552941,2,6,6,74,58.65529412,178.6552941,118.6552941,238.6552941,148.6552941,268.6552941,208.6552941,328.6552941
1,13,0,-1,58.65529412,1,-1,178.6552941,6,118.6552941,2,238.6552941,2,6,5,39,58.65529412,178.6552941,118.6552941,238.6552941,148.6552941,268.6552941,208.6552941,328.6552941
1,13,0,-1,58.65529412,1,-1,178.6552941,6,118.6552941,2,238.6552941,2,4,2,53,58.65529412,178.6552941,118.6552941,238.6552941,148.6552941,268.6552941,208.6552941,328.6552941
1,13,0,-1,58.65529412,1,-1,178.6552941,6,118.6552941,2,238.6552941,2,7,8,48,58.65529412,178.6552941,118.6552941,238.6552941,148.6552941,268.6552941,208.6552941,328.6552941
1,13,0,-1,58.65529412,1,-1,178.6552941,6,118.6552941,2,238.6552941,2,2,3,29,58.65529412,178.6552941,118.6552941,238.6552941,148.6552941,268.6552941,208.6552941,328.6552941
1,13,0,-1,58.65529412,1,-1,178.6552941,6,118.6552941,2,238.6552941,2,2,4,44,58.65529412,178.6552941,118.6552941,238.6552941,148.6552941,268.6552941,208.6552941,328.6552941
1,13,0,-1,58.65529412,1,-1,178.6552941,6,118.6552941,2,238.6552941,2,4,7,39,58.65529412,178.6552941,118.6552941,238.6552941,148.6552941,268.6552941,208.6552941,328.6552941
1,13,0,-1,58.65529412,1,-1,178.6552941,6,118.6552941,2,238.6552941,2,6,9,53,58.65529412,178.6552941,118.6552941,238.6552941,148.6552941,268.6552941,208.6552941,328.6552941
1,13,0,-1,58.65529412,1,-1,178.6552941,6,118.6552941,2,238.6552941,2,2,1,32,58.65529412,178.6552941,118.6552941,238.6552941,148.6552941,268.6552941,208.6552941,328.6552941
1,14,0,-1,-159.5205212,5,-1,-39.52052121,5,-99.52052121,8,20.47947879,9,4,1,54,-159.5205212,-39.52052121,-99.52052121,20.47947879,-69.52052121,50.47947879,-9.520521206,110.4794788
1,14,0,-1,-159.5205212,5,-1,-39.52052121,5,-99.52052121,8,20.47947879,9,7,6,37,-159.5205212,-39.52052121,-99.52052121,20.47947879,-69.52052121,50.47947879,-9.520521206,110.4794788
1,14,0,-1,-159.5205212,5,-1,-39.52052121,5,-99.52052121,8,20.47947879,9,4,4,37,-159.5205212,-39.52052121,-99.52052121,20.47947879,-69.52052121,50.47947879,-9.520521206,110.4794788
1,14,0,-1,-159.5205212,5,-1,-39.52052121,5,-99.52052121,8,20.47947879,9,7,8,59,-159.5205212,-39.52052121,-99.52052121,20.47947879,-69.52052121,50.47947879,-9.520521206,110.4794788
1,14,0,-1,-159.5205212,5,-1,-39.52052121,5,-99.52052121,8,20.47947879,9,3,5,75,-159.5205212,-39.52052121,-99.52052121,20.47947879,-69.52052121,50.47947879,-9.520521206,110.4794788
1,14,0,-1,-159.5205212,5,-1,-39.52052121,5,-99.52052121,8,20.47947879,9,5,7,41,-159.5205212,-39.52052121,-99.52052121,20.47947879,-69.52052121,50.47947879,-9.520521206,110.4794788
1,14,0,-1,-159.5205212,5,-1,-39.52052121,5,-99.52052121,8,20.47947879,9,0,3,55,-159.5205212,-39.52052121,-99.52052121,20.47947879,-69.52052121,50.47947879,-9.520521206,110.4794788
1,14,0,-1,-159.5205212,5,-1,-39.52052121,5,-99.52052121,8,20.47947879,9,2,9,37,-159.5205212,-39.52052121,-99.52052121,20.47947879,-69.52052121,50.47947879,-9.520521206,110.4794788
1,14,0,-1,-159.5205212,5,-1,-39.52052121,5,-99.52052121,8,20.47947879,9,3,2,45,-159.5205212,-39.52052121,-99.52052121,20.47947879,-69.52052121,50.47947879,-9.520521206,110.4794788
1,15,0,-1,-68.74942591,3,-1,51.25057409,6,-8.749425907,4,111.2505741,7,7,4,39,-68.74942591,51.25057409,-8.749425907,111.2505741,21.25057409,141.2505741,81.25057409,201.2505741
1,15,0,-1,-68.74942591,3,-1,51.25057409,6,-8.749425907,4,111.2505741,7,6,1,35,-68.74942591,51.25057409,-8.749425907,111.2505741,21.25057409,141.2505741,81.25057409,201.2505741
1,15,0,-1,-68.74942591,3,-1,51.25057409,6,-8.749425907,4,111.2505741,7,2,8,58,-68.74942591,51.25057409,-8.749425907,111.2505741,21.25057409,141.2505741,81.25057409,201.2505741
1,15,0,-1,-68.74942591,3,-1,51.25057409,6,-8.749425907,4,111.2505741,7,4,3,62,-68.74942591,51.25057409,-8.749425907,111.2505741,21.25057409,141.2505741,81.25057409,201.2505741
1,15,0,-1,-68.74942591,3,-1,51.25057409,6,-8.749425907,4,111.2505741,7,7,7,55,-68.74942591,51.25057409,-8.749425907,111.2505741,21.25057409,141.2505741,81.25057409,201.2505741
1,15,0,-1,-68.74942591,3,-1,51.25057409,6,-8.749425907,4,111.2505741,7,7,6,50,-68.74942591,51.25057409,-8.749425907,111.2505741,21.25057409,141.2505741,81.25057409,201.2505741
1,15,0,-1,-68.74942591,3,-1,51.25057409,6,-8.749425907,4,111.2505741,7,3,5,64,-68.74942591,51.25057409,-8.749425907,111.2505741,21.25057409,141.2505741,81.25057409,201.2505741
1,15,0,-1,-68.74942591,3,-1,51.25057409,6,-8.749425907,4,111.2505741,7,3,9,54,-68.74942591,51.25057409,-8.749425907,111.2505741,21.25057409,141.2505741,81.25057409,201.2505741
1,15,0,-1,-68.74942591,3,-1,51.25057409,6,-8.749425907,4,111.2505741,7,6,2,58,-68.74942591,51.25057409,-8.749425907,111.2505741,21.25057409,141.2505741,81.25057409,201.2505741
1,16,0,-1,67.07900422,5,-1,187.0790042,4,127.0790042,7,247.0790042,2,4,4,58,67.07900422,187.0790042,127.0790042,247.0790042,157.0790042,277.0790042,217.0790042,337.0790042
1,16,0,-1,67.07900422,5,-1,187.0790042,4,127.0790042,7,247.0790042,2,5,2,36,67.07900422,187.0790042,127.0790042,247.0790042,157.0790042,277.0790042,217.0790042,337.0790042
1,16,0,-1,67.07900422,5,-1,187.0790042,4,127.0790042,7,247.0790042,2,5,3,37,67.07900422,187.0790042,127.0790042,247.0790042,157.0790042,277.0790042,217.0790042,337.0790042
1,16,0,-1,67.07900422,5,-1,187.0790042,4,127.0790042,7,247.0790042,2,5,5,27,67.07900422,187.0790042,127.0790042,247.0790042,157.0790042,277.0790042,217.0790042,337.0790042
1,16,0,-1,67.07900422,5,-1,187.0790042,4,127.0790042,7,247.0790042,2,3,6,63,67.07900422,187.0790042,127.0790042,247.0790042,157.0790042,277.0790042,217.0790042,337.0790042
1,16,0,-1,67.07900422,5,-1,187.0790042,4,127.0790042,7,247.0790042,2,6,1,73,67.07900422,187.0790042,127.0790042,247.0790042,157.0790042,277.0790042,217.0790042,337.0790042
1,16,0,-1,67.07900422,5,-1,187.0790042,4,127.0790042,7,247.0790042,2,4,8,47,67.07900422,187.0790042,127.0790042,247.0790042,157.0790042,277.0790042,217.0790042,337.0790042
1,16,0,-1,67.07900422,5,-1,187.0790042,4,127.0790042,7,247.0790042,2,6,9,63,67.07900422,187.0790042,127.0790042,247.0790042,157.0790042,277.0790042,217.0790042,337.0790042
1,16,0,-1,67.07900422,5,-1,187.0790042,4,127.0790042,7,247.0790042,2,2,7,53,67.07900422,187.0790042,127.0790042,247.0790042,157.0790042,277.0790042,217.0790042,337.0790042
1,17,0,-1,137.4230946,7,-1,257.4230946,9,197.4230946,4,317.4230946,3,7,7,65,137.4230946,257.4230946,197.4230946,317.4230946,227.4230946,347.4230946,287.4230946,407.4230946
1,17,0,-1,137.4230946,7,-1,257.4230946,9,197.4230946,4,317.4230946,3,7,8,60,137.4230946,257.4230946,197.4230946,317.4230946,227.4230946,347.4230946,287.4230946,407.4230946
1,17,0,-1,137.4230946,7,-1,257.4230946,9,197.4230946,4,317.4230946,3,7,2,40,137.4230946,257.4230946,197.4230946,317.4230946,227.4230946,347.4230946,287.4230946,407.4230946
1,17,0,-1,137.4230946,7,-1,257.4230946,9,197.4230946,4,317.4230946,3,1,5,42,137.4230946,257.4230946,197.4230946,317.4230946,227.4230946,347.4230946,287.4230946,407.4230946
1,17,0,-1,137.4230946,7,-1,257.4230946,9,197.4230946,4,317.4230946,3,6,3,75,137.4230946,257.4230946,197.4230946,317.4230946,227.4230946,347.4230946,287.4230946,407.4230946
1,17,0,-1,137.4230946,7,-1,257.4230946,9,197.4230946,4,317.4230946,3,6,9,56,137.4230946,257.4230946,197.4230946,317.4230946,227.4230946,347.4230946,287.4230946,407.4230946
1,17,0,-1,137.4230946,7,-1,257.4230946,9,197.4230946,4,317.4230946,3,6,1,55,137.4230946,257.4230946,197.4230946,317.4230946,227.4230946,347.4230946,287.4230946,407.4230946
1,17,0,-1,137.4230946,7,-1,257.4230946,9,197.4230946,4,317.4230946,3,6,4,71,137.4230946,257.4230946,197.4230946,317.4230946,227.4230946,347.4230946,287.4230946,407.4230946
1,17,0,-1,137.4230946,7,-1,257.4230946,9,197.4230946,4,317.4230946,3,6,6,40,137.4230946,257.4230946,197.4230946,317.4230946,227.4230946,347.4230946,287.4230946,407.4230946
1,18,0,-1,123.6540906,8,-1,243.6540906,3,183.6540906,9,303.6540906,3,3,3,65,123.6540906,243.6540906,183.6540906,303.6540906,213.6540906,333.6540906,273.6540906,393.6540906
1,18,0,-1,123.6540906,8,-1,243.6540906,3,183.6540906,9,303.6540906,3,6,8,65,123.6540906,243.6540906,183.6540906,303.6540906,213.6540906,333.6540906,273.6540906,393.6540906
1,18,0,-1,123.6540906,8,-1,243.6540906,3,183.6540906,9,303.6540906,3,0,5,38,123.6540906,243.6540906,183.6540906,303.6540906,213.6540906,333.6540906,273.6540906,393.6540906
1,18,0,-1,123.6540906,8,-1,243.6540906,3,183.6540906,9,303.6540906,3,5,9,60,123.6540906,243.6540906,183.6540906,303.6540906,213.6540906,333.6540906,273.6540906,393.6540906
1,18,0,-1,123.6540906,8,-1,243.6540906,3,183.6540906,9,303.6540906,3,6,1,33,123.6540906,243.6540906,183.6540906,303.6540906,213.6540906,333.6540906,273.6540906,393.6540906
1,18,0,-1,123.6540906,8,-1,243.6540906,3,183.6540906,9,303.6540906,3,3,4,46,123.6540906,243.6540906,183.6540906,303.6540906,213.6540906,333.6540906,273.6540906,393.6540906
1,18,0,-1,123.6540906,8,-1,243.6540906,3,183.6540906,9,303.6540906,3,6,2,60,123.6540906,243.6540906,183.6540906,303.6540906,213.6540906,333.6540906,273.6540906,393.6540906
1,18,0,-1,123.6540906,8,-1,243.6540906,3,183.6540906,9,303.6540906,3,3,6,71,123.6540906,243.6540906,183.6540906,303.6540906,213.6540906,333.6540906,273.6540906,393.6540906
1,18,0,-1,123.6540906,8,-1,243.6540906,3,183.6540906,9,303.6540906,3,1,7,46,123.6540906,243.6540906,183.6540906,303.6540906,213.6540906,333.6540906,273.6540906,393.6540906
